"subject_id","lang_comm","gender","age_in_years","age_in_months","parent_edu_level","test_order","block","test_part","language","condition","trial_index","stimulus","button_correct","button_selected","rt","accuracy","missing_LEQ","exclude_preterm","exclude_language_problem","exclude_incomplete","exclude_parent","global_exposure_eng","global_exposure_fr","global_exposure_sp","global_exposure_other","comprehension_proficiency_eng","comprehension_proficiency_fr","comprehension_proficiency_sp"
"FE03","French-English","Female",4.84325804243669,58.1190965092402,"Attestation of College Studies (AÉC)","en_it","familiar","fam_test","english","familiar",1,"sound/familiar_spoon_5s.mp3","spoon","spoon",1600,1,0,0,0,0,0,20,68,NA,2,8,10,NA
"FE03","French-English","Female",4.84325804243669,58.1190965092402,"Attestation of College Studies (AÉC)","en_it","familiar","fam_test","english","familiar",2,"sound/familiar_cookie_5s.mp3","cookie","cookie",3579,1,0,0,0,0,0,20,68,NA,2,8,10,NA
"FE03","French-English","Female",4.84325804243669,58.1190965092402,"Attestation of College Studies (AÉC)","en_it","familiar","fam_test","english","familiar",3,"sound/familiar_nose_5s.mp3","nose","nose",2048,1,0,0,0,0,0,20,68,NA,2,8,10,NA
"FE03","French-English","Female",4.84325804243669,58.1190965092402,"Attestation of College Studies (AÉC)","en_it","familiar","fam_test","english","familiar",4,"sound/familiar_key_5s.mp3","key","key",1421,1,0,0,0,0,0,20,68,NA,2,8,10,NA
"FE03","French-English","Female",4.84325804243669,58.1190965092402,"Attestation of College Studies (AÉC)","en_it","familiar","fam_test","english","familiar",5,"sound/familiar_doggy_5s.mp3","doggy","doggy",680,1,0,0,0,0,0,20,68,NA,2,8,10,NA
"FE03","French-English","Female",4.84325804243669,58.1190965092402,"Attestation of College Studies (AÉC)","en_it","familiar","fam_test","english","familiar",6,"sound/familiar_book_5s.mp3","book","book",1880,1,0,0,0,0,0,20,68,NA,2,8,10,NA
"FE03","French-English","Female",4.84325804243669,58.1190965092402,"Attestation of College Studies (AÉC)","en_it","familiar","fam_test","french","familiar",7,"sound/familiar_poupee_5s.mp3","doll","doll",3040,1,0,0,0,0,0,20,68,NA,2,8,10,NA
"FE03","French-English","Female",4.84325804243669,58.1190965092402,"Attestation of College Studies (AÉC)","en_it","familiar","fam_test","french","familiar",8,"sound/familiar_chat_5s.mp3","kitty","kitty",2069,1,0,0,0,0,0,20,68,NA,2,8,10,NA
"FE03","French-English","Female",4.84325804243669,58.1190965092402,"Attestation of College Studies (AÉC)","en_it","familiar","fam_test","french","familiar",9,"sound/familiar_main_5s.mp3","hand","hand",1216,1,0,0,0,0,0,20,68,NA,2,8,10,NA
"FE03","French-English","Female",4.84325804243669,58.1190965092402,"Attestation of College Studies (AÉC)","en_it","familiar","fam_test","french","familiar",10,"sound/familiar_pied_5s.mp3","foot","foot",1760,1,0,0,0,0,0,20,68,NA,2,8,10,NA
"FE03","French-English","Female",4.84325804243669,58.1190965092402,"Attestation of College Studies (AÉC)","en_it","familiar","fam_test","french","familiar",11,"sound/familiar_chaise_5s.mp3","chair","chair",960,1,0,0,0,0,0,20,68,NA,2,8,10,NA
"FE03","French-English","Female",4.84325804243669,58.1190965092402,"Attestation of College Studies (AÉC)","en_it","familiar","fam_test","french","familiar",12,"sound/familiar_bouche_5s.mp3","mouth","mouth",1181,1,0,0,0,0,0,20,68,NA,2,8,10,NA
"FE03","French-English","Female",4.84325804243669,58.1190965092402,"Attestation of College Studies (AÉC)","en_it","block1","nov_learn","english-french","immediate_translation",1,"sound/learning_gasser_here.mp3","Gasser_Cantait_Sasco","",2440,1,0,0,0,0,0,20,68,NA,2,8,10,NA
"FE03","French-English","Female",4.84325804243669,58.1190965092402,"Attestation of College Studies (AÉC)","en_it","block1","nov_learn","english-french","immediate_translation",2,"sound/learning_cantait_voici.mp3","Gasser_Cantait_Sasco","",2680,1,0,0,0,0,0,20,68,NA,2,8,10,NA
"FE03","French-English","Female",4.84325804243669,58.1190965092402,"Attestation of College Studies (AÉC)","en_it","block1","nov_learn","english-french","immediate_translation",3,"sound/learning_gasser_look.mp3","Gasser_Cantait_Sasco","",1000,1,0,0,0,0,0,20,68,NA,2,8,10,NA
"FE03","French-English","Female",4.84325804243669,58.1190965092402,"Attestation of College Studies (AÉC)","en_it","block1","nov_learn","english-french","immediate_translation",4,"sound/learning_cantait_regarde.mp3","Gasser_Cantait_Sasco","",2099,1,0,0,0,0,0,20,68,NA,2,8,10,NA
"FE03","French-English","Female",4.84325804243669,58.1190965092402,"Attestation of College Studies (AÉC)","en_it","block1","nov_learn","english-french","immediate_translation",5,"sound/learning_gasser_look.mp3","Gasser_Cantait_Sasco","",3000,1,0,0,0,0,0,20,68,NA,2,8,10,NA
"FE03","French-English","Female",4.84325804243669,58.1190965092402,"Attestation of College Studies (AÉC)","en_it","block1","nov_learn","english-french","immediate_translation",6,"sound/learning_cantait_regarde.mp3","Gasser_Cantait_Sasco","",1280,1,0,0,0,0,0,20,68,NA,2,8,10,NA
"FE03","French-English","Female",4.84325804243669,58.1190965092402,"Attestation of College Studies (AÉC)","en_it","block1","nov_learn","english-french","immediate_translation",7,"sound/learning_waydle_here.mp3","Waydle_Sidon_Delvo","",1021,1,0,0,0,0,0,20,68,NA,2,8,10,NA
"FE03","French-English","Female",4.84325804243669,58.1190965092402,"Attestation of College Studies (AÉC)","en_it","block1","nov_learn","english-french","immediate_translation",8,"sound/learning_sidon_voici.mp3","Waydle_Sidon_Delvo",NA,NA,NA,0,0,0,0,0,20,68,NA,2,8,10,NA
"FE03","French-English","Female",4.84325804243669,58.1190965092402,"Attestation of College Studies (AÉC)","en_it","block1","nov_learn","english-french","immediate_translation",9,"sound/learning_waydle_look.mp3","Waydle_Sidon_Delvo","",2021,1,0,0,0,0,0,20,68,NA,2,8,10,NA
"FE03","French-English","Female",4.84325804243669,58.1190965092402,"Attestation of College Studies (AÉC)","en_it","block1","nov_learn","english-french","immediate_translation",10,"sound/learning_sidon_regarde.mp3","Waydle_Sidon_Delvo","",2960,1,0,0,0,0,0,20,68,NA,2,8,10,NA
"FE03","French-English","Female",4.84325804243669,58.1190965092402,"Attestation of College Studies (AÉC)","en_it","block1","nov_learn","english-french","immediate_translation",11,"sound/learning_waydle_here.mp3","Waydle_Sidon_Delvo","",920,1,0,0,0,0,0,20,68,NA,2,8,10,NA
"FE03","French-English","Female",4.84325804243669,58.1190965092402,"Attestation of College Studies (AÉC)","en_it","block1","nov_learn","english-french","immediate_translation",12,"sound/learning_sidon_voici.mp3","Waydle_Sidon_Delvo","",899,1,0,0,0,0,0,20,68,NA,2,8,10,NA
"FE03","French-English","Female",4.84325804243669,58.1190965092402,"Attestation of College Studies (AÉC)","en_it","block1","nov_test","english","immediate_translation",1,"sound/test_waydle_5s.mp3","Waydle_Sidon_Delvo","Waydle_Sidon_Delvo",3280,1,0,0,0,0,0,20,68,NA,2,8,10,NA
"FE03","French-English","Female",4.84325804243669,58.1190965092402,"Attestation of College Studies (AÉC)","en_it","block1","nov_test","english","immediate_translation",2,"sound/test_gasser_5s.mp3","Gasser_Cantait_Sasco","Gasser_Cantait_Sasco",680,1,0,0,0,0,0,20,68,NA,2,8,10,NA
"FE03","French-English","Female",4.84325804243669,58.1190965092402,"Attestation of College Studies (AÉC)","en_it","block1","nov_test","english","immediate_translation",3,"sound/test_gasser_5s.mp3","Gasser_Cantait_Sasco","Gasser_Cantait_Sasco",1040,1,0,0,0,0,0,20,68,NA,2,8,10,NA
"FE03","French-English","Female",4.84325804243669,58.1190965092402,"Attestation of College Studies (AÉC)","en_it","block1","nov_test","english","immediate_translation",4,"sound/test_waydle_5s.mp3","Waydle_Sidon_Delvo","Waydle_Sidon_Delvo",1541,1,0,0,0,0,0,20,68,NA,2,8,10,NA
"FE03","French-English","Female",4.84325804243669,58.1190965092402,"Attestation of College Studies (AÉC)","en_it","block1","nov_test","english","immediate_translation",5,"sound/test_waydle_5s.mp3","Waydle_Sidon_Delvo","Waydle_Sidon_Delvo",2600,1,0,0,0,0,0,20,68,NA,2,8,10,NA
"FE03","French-English","Female",4.84325804243669,58.1190965092402,"Attestation of College Studies (AÉC)","en_it","block1","nov_test","english","immediate_translation",6,"sound/test_gasser_5s.mp3","Gasser_Cantait_Sasco","Gasser_Cantait_Sasco",821,1,0,0,0,0,0,20,68,NA,2,8,10,NA
"FE03","French-English","Female",4.84325804243669,58.1190965092402,"Attestation of College Studies (AÉC)","en_it","block1","nov_test","french","immediate_translation",7,"sound/test_cantait_5s.mp3","Gasser_Cantait_Sasco",NA,NA,NA,0,0,0,0,0,20,68,NA,2,8,10,NA
"FE03","French-English","Female",4.84325804243669,58.1190965092402,"Attestation of College Studies (AÉC)","en_it","block1","nov_test","french","immediate_translation",8,"sound/test_sidon_5s.mp3","Waydle_Sidon_Delvo","Waydle_Sidon_Delvo",3648,1,0,0,0,0,0,20,68,NA,2,8,10,NA
"FE03","French-English","Female",4.84325804243669,58.1190965092402,"Attestation of College Studies (AÉC)","en_it","block1","nov_test","french","immediate_translation",9,"sound/test_sidon_5s.mp3","Waydle_Sidon_Delvo","Waydle_Sidon_Delvo",2000,1,0,0,0,0,0,20,68,NA,2,8,10,NA
"FE03","French-English","Female",4.84325804243669,58.1190965092402,"Attestation of College Studies (AÉC)","en_it","block1","nov_test","french","immediate_translation",10,"sound/test_cantait_5s.mp3","Gasser_Cantait_Sasco","Gasser_Cantait_Sasco",9440,1,0,0,0,0,0,20,68,NA,2,8,10,NA
"FE03","French-English","Female",4.84325804243669,58.1190965092402,"Attestation of College Studies (AÉC)","en_it","block1","nov_test","french","immediate_translation",11,"sound/test_cantait_5s.mp3","Gasser_Cantait_Sasco","Gasser_Cantait_Sasco",320,1,0,0,0,0,0,20,68,NA,2,8,10,NA
"FE03","French-English","Female",4.84325804243669,58.1190965092402,"Attestation of College Studies (AÉC)","en_it","block1","nov_test","french","immediate_translation",12,"sound/test_sidon_5s.mp3","Waydle_Sidon_Delvo","Waydle_Sidon_Delvo",941,1,0,0,0,0,0,20,68,NA,2,8,10,NA
"FE03","French-English","Female",4.84325804243669,58.1190965092402,"Attestation of College Studies (AÉC)","en_it","block2","nov_learn","english","one_language_at_a_time",1,"sound/learning_tulver_look.mp3","Tulver_Donquete_Pifa","",1259,1,0,0,0,0,0,20,68,NA,2,8,10,NA
"FE03","French-English","Female",4.84325804243669,58.1190965092402,"Attestation of College Studies (AÉC)","en_it","block2","nov_learn","english","one_language_at_a_time",2,"sound/learning_tulver_here.mp3","Tulver_Donquete_Pifa","",2779,1,0,0,0,0,0,20,68,NA,2,8,10,NA
"FE03","French-English","Female",4.84325804243669,58.1190965092402,"Attestation of College Studies (AÉC)","en_it","block2","nov_learn","english","one_language_at_a_time",3,"sound/learning_tulver_here.mp3","Tulver_Donquete_Pifa","",880,1,0,0,0,0,0,20,68,NA,2,8,10,NA
"FE03","French-English","Female",4.84325804243669,58.1190965092402,"Attestation of College Studies (AÉC)","en_it","block2","nov_learn","french","one_language_at_a_time",4,"sound/learning_donquete_regarde.mp3","Tulver_Donquete_Pifa","",1019,1,0,0,0,0,0,20,68,NA,2,8,10,NA
"FE03","French-English","Female",4.84325804243669,58.1190965092402,"Attestation of College Studies (AÉC)","en_it","block2","nov_learn","french","one_language_at_a_time",5,"sound/learning_donquete_voici.mp3","Tulver_Donquete_Pifa","",1120,1,0,0,0,0,0,20,68,NA,2,8,10,NA
"FE03","French-English","Female",4.84325804243669,58.1190965092402,"Attestation of College Studies (AÉC)","en_it","block2","nov_learn","french","one_language_at_a_time",6,"sound/learning_donquete_regarde.mp3","Tulver_Donquete_Pifa","",1520,1,0,0,0,0,0,20,68,NA,2,8,10,NA
"FE03","French-English","Female",4.84325804243669,58.1190965092402,"Attestation of College Studies (AÉC)","en_it","block2","nov_learn","english","one_language_at_a_time",7,"sound/learning_blicket_look.mp3","Blicket_Puismenne_Kina","",1080,1,0,0,0,0,0,20,68,NA,2,8,10,NA
"FE03","French-English","Female",4.84325804243669,58.1190965092402,"Attestation of College Studies (AÉC)","en_it","block2","nov_learn","english","one_language_at_a_time",8,"sound/learning_blicket_here.mp3","Blicket_Puismenne_Kina","",680,1,0,0,0,0,0,20,68,NA,2,8,10,NA
"FE03","French-English","Female",4.84325804243669,58.1190965092402,"Attestation of College Studies (AÉC)","en_it","block2","nov_learn","english","one_language_at_a_time",9,"sound/learning_blicket_look.mp3","Blicket_Puismenne_Kina","",1739,1,0,0,0,0,0,20,68,NA,2,8,10,NA
"FE03","French-English","Female",4.84325804243669,58.1190965092402,"Attestation of College Studies (AÉC)","en_it","block2","nov_learn","french","one_language_at_a_time",10,"sound/learning_puismenne_voici.mp3","Blicket_Puismenne_Kina","",781,1,0,0,0,0,0,20,68,NA,2,8,10,NA
"FE03","French-English","Female",4.84325804243669,58.1190965092402,"Attestation of College Studies (AÉC)","en_it","block2","nov_learn","french","one_language_at_a_time",11,"sound/learning_puismenne_voici.mp3","Blicket_Puismenne_Kina","",2899,1,0,0,0,0,0,20,68,NA,2,8,10,NA
"FE03","French-English","Female",4.84325804243669,58.1190965092402,"Attestation of College Studies (AÉC)","en_it","block2","nov_learn","french","one_language_at_a_time",12,"sound/learning_puismenne_regarde.mp3","Blicket_Puismenne_Kina","",1101,1,0,0,0,0,0,20,68,NA,2,8,10,NA
"FE03","French-English","Female",4.84325804243669,58.1190965092402,"Attestation of College Studies (AÉC)","en_it","block2","nov_test","english","one_language_at_a_time",1,"sound/test_blicket_5s.mp3","Blicket_Puismenne_Kina","Tulver_Donquete_Pifa",2520,0,0,0,0,0,0,20,68,NA,2,8,10,NA
"FE03","French-English","Female",4.84325804243669,58.1190965092402,"Attestation of College Studies (AÉC)","en_it","block2","nov_test","english","one_language_at_a_time",2,"sound/test_tulver_5s.mp3","Tulver_Donquete_Pifa","Tulver_Donquete_Pifa",7280,1,0,0,0,0,0,20,68,NA,2,8,10,NA
"FE03","French-English","Female",4.84325804243669,58.1190965092402,"Attestation of College Studies (AÉC)","en_it","block2","nov_test","english","one_language_at_a_time",3,"sound/test_blicket_5s.mp3","Blicket_Puismenne_Kina","Blicket_Puismenne_Kina",640,1,0,0,0,0,0,20,68,NA,2,8,10,NA
"FE03","French-English","Female",4.84325804243669,58.1190965092402,"Attestation of College Studies (AÉC)","en_it","block2","nov_test","english","one_language_at_a_time",4,"sound/test_blicket_5s.mp3","Blicket_Puismenne_Kina","Blicket_Puismenne_Kina",781,1,0,0,0,0,0,20,68,NA,2,8,10,NA
"FE03","French-English","Female",4.84325804243669,58.1190965092402,"Attestation of College Studies (AÉC)","en_it","block2","nov_test","english","one_language_at_a_time",5,"sound/test_tulver_5s.mp3","Tulver_Donquete_Pifa","Tulver_Donquete_Pifa",541,1,0,0,0,0,0,20,68,NA,2,8,10,NA
"FE03","French-English","Female",4.84325804243669,58.1190965092402,"Attestation of College Studies (AÉC)","en_it","block2","nov_test","english","one_language_at_a_time",6,"sound/test_tulver_5s.mp3","Tulver_Donquete_Pifa","Tulver_Donquete_Pifa",299,1,0,0,0,0,0,20,68,NA,2,8,10,NA
"FE03","French-English","Female",4.84325804243669,58.1190965092402,"Attestation of College Studies (AÉC)","en_it","block2","nov_test","french","one_language_at_a_time",7,"sound/test_donquete_5s.mp3","Tulver_Donquete_Pifa","Tulver_Donquete_Pifa",4120,1,0,0,0,0,0,20,68,NA,2,8,10,NA
"FE03","French-English","Female",4.84325804243669,58.1190965092402,"Attestation of College Studies (AÉC)","en_it","block2","nov_test","french","one_language_at_a_time",8,"sound/test_puismenne_5s.mp3","Blicket_Puismenne_Kina","Blicket_Puismenne_Kina",1360,1,0,0,0,0,0,20,68,NA,2,8,10,NA
"FE03","French-English","Female",4.84325804243669,58.1190965092402,"Attestation of College Studies (AÉC)","en_it","block2","nov_test","french","one_language_at_a_time",9,"sound/test_puismenne_5s.mp3","Blicket_Puismenne_Kina","Blicket_Puismenne_Kina",541,1,0,0,0,0,0,20,68,NA,2,8,10,NA
"FE03","French-English","Female",4.84325804243669,58.1190965092402,"Attestation of College Studies (AÉC)","en_it","block2","nov_test","french","one_language_at_a_time",10,"sound/test_donquete_5s.mp3","Tulver_Donquete_Pifa","Tulver_Donquete_Pifa",739,1,0,0,0,0,0,20,68,NA,2,8,10,NA
"FE03","French-English","Female",4.84325804243669,58.1190965092402,"Attestation of College Studies (AÉC)","en_it","block2","nov_test","french","one_language_at_a_time",11,"sound/test_donquete_5s.mp3","Tulver_Donquete_Pifa","Tulver_Donquete_Pifa",3600,1,0,0,0,0,0,20,68,NA,2,8,10,NA
"FE03","French-English","Female",4.84325804243669,58.1190965092402,"Attestation of College Studies (AÉC)","en_it","block2","nov_test","french","one_language_at_a_time",12,"sound/test_puismenne_5s.mp3","Blicket_Puismenne_Kina","Blicket_Puismenne_Kina",821,1,0,0,0,0,0,20,68,NA,2,8,10,NA
"FE10","French-English","Female",3.10198494182067,37.223819301848,"College Certificate/Diploma","en_it","familiar","fam_test","english","familiar",1,"sound/familiar_spoon_5s.mp3","spoon","spoon",2645,1,0,0,0,0,0,50,50,NA,NA,8,10,NA
"FE10","French-English","Female",3.10198494182067,37.223819301848,"College Certificate/Diploma","en_it","familiar","fam_test","english","familiar",2,"sound/familiar_cookie_5s.mp3","cookie","key",1843,0,0,0,0,0,0,50,50,NA,NA,8,10,NA
"FE10","French-English","Female",3.10198494182067,37.223819301848,"College Certificate/Diploma","en_it","familiar","fam_test","english","familiar",3,"sound/familiar_nose_5s.mp3","nose","nose",5573,1,0,0,0,0,0,50,50,NA,NA,8,10,NA
"FE10","French-English","Female",3.10198494182067,37.223819301848,"College Certificate/Diploma","en_it","familiar","fam_test","english","familiar",4,"sound/familiar_key_5s.mp3","key","key",3197,1,0,0,0,0,0,50,50,NA,NA,8,10,NA
"FE10","French-English","Female",3.10198494182067,37.223819301848,"College Certificate/Diploma","en_it","familiar","fam_test","english","familiar",5,"sound/familiar_doggy_5s.mp3","doggy","doggy",715,1,0,0,0,0,0,50,50,NA,NA,8,10,NA
"FE10","French-English","Female",3.10198494182067,37.223819301848,"College Certificate/Diploma","en_it","familiar","fam_test","english","familiar",6,"sound/familiar_book_5s.mp3","book","book",1947,1,0,0,0,0,0,50,50,NA,NA,8,10,NA
"FE10","French-English","Female",3.10198494182067,37.223819301848,"College Certificate/Diploma","en_it","familiar","fam_test","french","familiar",7,"sound/familiar_poupee_5s.mp3","doll","doll",7376,1,0,0,0,0,0,50,50,NA,NA,8,10,NA
"FE10","French-English","Female",3.10198494182067,37.223819301848,"College Certificate/Diploma","en_it","familiar","fam_test","french","familiar",8,"sound/familiar_chat_5s.mp3","kitty","kitty",941,1,0,0,0,0,0,50,50,NA,NA,8,10,NA
"FE10","French-English","Female",3.10198494182067,37.223819301848,"College Certificate/Diploma","en_it","familiar","fam_test","french","familiar",9,"sound/familiar_main_5s.mp3","hand","hand",2005,1,0,0,0,0,0,50,50,NA,NA,8,10,NA
"FE10","French-English","Female",3.10198494182067,37.223819301848,"College Certificate/Diploma","en_it","familiar","fam_test","french","familiar",10,"sound/familiar_pied_5s.mp3","foot","foot",2027,1,0,0,0,0,0,50,50,NA,NA,8,10,NA
"FE10","French-English","Female",3.10198494182067,37.223819301848,"College Certificate/Diploma","en_it","familiar","fam_test","french","familiar",11,"sound/familiar_chaise_5s.mp3","chair","chair",6339,1,0,0,0,0,0,50,50,NA,NA,8,10,NA
"FE10","French-English","Female",3.10198494182067,37.223819301848,"College Certificate/Diploma","en_it","familiar","fam_test","french","familiar",12,"sound/familiar_bouche_5s.mp3","mouth","mouth",1213,1,0,0,0,0,0,50,50,NA,NA,8,10,NA
"FE10","French-English","Female",3.10198494182067,37.223819301848,"College Certificate/Diploma","en_it","block1","nov_learn","english-french","immediate_translation",1,"sound/learning_gasser_here.mp3","Gasser_Cantait_Sasco","",3979,1,0,0,0,0,0,50,50,NA,NA,8,10,NA
"FE10","French-English","Female",3.10198494182067,37.223819301848,"College Certificate/Diploma","en_it","block1","nov_learn","english-french","immediate_translation",2,"sound/learning_cantait_voici.mp3","Gasser_Cantait_Sasco","",2651,1,0,0,0,0,0,50,50,NA,NA,8,10,NA
"FE10","French-English","Female",3.10198494182067,37.223819301848,"College Certificate/Diploma","en_it","block1","nov_learn","english-french","immediate_translation",3,"sound/learning_gasser_look.mp3","Gasser_Cantait_Sasco","",7019,1,0,0,0,0,0,50,50,NA,NA,8,10,NA
"FE10","French-English","Female",3.10198494182067,37.223819301848,"College Certificate/Diploma","en_it","block1","nov_learn","english-french","immediate_translation",4,"sound/learning_cantait_regarde.mp3","Gasser_Cantait_Sasco","",2051,1,0,0,0,0,0,50,50,NA,NA,8,10,NA
"FE10","French-English","Female",3.10198494182067,37.223819301848,"College Certificate/Diploma","en_it","block1","nov_learn","english-french","immediate_translation",5,"sound/learning_gasser_look.mp3","Gasser_Cantait_Sasco","",2267,1,0,0,0,0,0,50,50,NA,NA,8,10,NA
"FE10","French-English","Female",3.10198494182067,37.223819301848,"College Certificate/Diploma","en_it","block1","nov_learn","english-french","immediate_translation",6,"sound/learning_cantait_regarde.mp3","Gasser_Cantait_Sasco","",2597,1,0,0,0,0,0,50,50,NA,NA,8,10,NA
"FE10","French-English","Female",3.10198494182067,37.223819301848,"College Certificate/Diploma","en_it","block1","nov_learn","english-french","immediate_translation",7,"sound/learning_waydle_here.mp3","Waydle_Sidon_Delvo","",155,1,0,0,0,0,0,50,50,NA,NA,8,10,NA
"FE10","French-English","Female",3.10198494182067,37.223819301848,"College Certificate/Diploma","en_it","block1","nov_learn","english-french","immediate_translation",8,"sound/learning_sidon_voici.mp3","Waydle_Sidon_Delvo","",1123,1,0,0,0,0,0,50,50,NA,NA,8,10,NA
"FE10","French-English","Female",3.10198494182067,37.223819301848,"College Certificate/Diploma","en_it","block1","nov_learn","english-french","immediate_translation",9,"sound/learning_waydle_look.mp3","Waydle_Sidon_Delvo","",2355,1,0,0,0,0,0,50,50,NA,NA,8,10,NA
"FE10","French-English","Female",3.10198494182067,37.223819301848,"College Certificate/Diploma","en_it","block1","nov_learn","english-french","immediate_translation",10,"sound/learning_sidon_regarde.mp3","Waydle_Sidon_Delvo","",693,1,0,0,0,0,0,50,50,NA,NA,8,10,NA
"FE10","French-English","Female",3.10198494182067,37.223819301848,"College Certificate/Diploma","en_it","block1","nov_learn","english-french","immediate_translation",11,"sound/learning_waydle_here.mp3","Waydle_Sidon_Delvo","",2629,1,0,0,0,0,0,50,50,NA,NA,8,10,NA
"FE10","French-English","Female",3.10198494182067,37.223819301848,"College Certificate/Diploma","en_it","block1","nov_learn","english-french","immediate_translation",12,"sound/learning_sidon_voici.mp3","Waydle_Sidon_Delvo","",907,1,0,0,0,0,0,50,50,NA,NA,8,10,NA
"FE10","French-English","Female",3.10198494182067,37.223819301848,"College Certificate/Diploma","en_it","block1","nov_test","english","immediate_translation",1,"sound/test_waydle_5s.mp3","Waydle_Sidon_Delvo","Gasser_Cantait_Sasco",6296,0,0,0,0,0,0,50,50,NA,NA,8,10,NA
"FE10","French-English","Female",3.10198494182067,37.223819301848,"College Certificate/Diploma","en_it","block1","nov_test","english","immediate_translation",2,"sound/test_gasser_5s.mp3","Gasser_Cantait_Sasco","Gasser_Cantait_Sasco",6323,1,0,0,0,0,0,50,50,NA,NA,8,10,NA
"FE10","French-English","Female",3.10198494182067,37.223819301848,"College Certificate/Diploma","en_it","block1","nov_test","english","immediate_translation",3,"sound/test_gasser_5s.mp3","Gasser_Cantait_Sasco","Gasser_Cantait_Sasco",864,1,0,0,0,0,0,50,50,NA,NA,8,10,NA
"FE10","French-English","Female",3.10198494182067,37.223819301848,"College Certificate/Diploma","en_it","block1","nov_test","english","immediate_translation",4,"sound/test_waydle_5s.mp3","Waydle_Sidon_Delvo","Waydle_Sidon_Delvo",5133,1,0,0,0,0,0,50,50,NA,NA,8,10,NA
"FE10","French-English","Female",3.10198494182067,37.223819301848,"College Certificate/Diploma","en_it","block1","nov_test","english","immediate_translation",5,"sound/test_waydle_5s.mp3","Waydle_Sidon_Delvo","Waydle_Sidon_Delvo",9859,1,0,0,0,0,0,50,50,NA,NA,8,10,NA
"FE10","French-English","Female",3.10198494182067,37.223819301848,"College Certificate/Diploma","en_it","block1","nov_test","english","immediate_translation",6,"sound/test_gasser_5s.mp3","Gasser_Cantait_Sasco","Gasser_Cantait_Sasco",5848,1,0,0,0,0,0,50,50,NA,NA,8,10,NA
"FE10","French-English","Female",3.10198494182067,37.223819301848,"College Certificate/Diploma","en_it","block1","nov_test","french","immediate_translation",7,"sound/test_cantait_5s.mp3","Gasser_Cantait_Sasco",NA,NA,NA,0,0,0,0,0,50,50,NA,NA,8,10,NA
"FE10","French-English","Female",3.10198494182067,37.223819301848,"College Certificate/Diploma","en_it","block1","nov_test","french","immediate_translation",8,"sound/test_sidon_5s.mp3","Waydle_Sidon_Delvo","Waydle_Sidon_Delvo",6683,1,0,0,0,0,0,50,50,NA,NA,8,10,NA
"FE10","French-English","Female",3.10198494182067,37.223819301848,"College Certificate/Diploma","en_it","block1","nov_test","french","immediate_translation",9,"sound/test_sidon_5s.mp3","Waydle_Sidon_Delvo","Waydle_Sidon_Delvo",6091,1,0,0,0,0,0,50,50,NA,NA,8,10,NA
"FE10","French-English","Female",3.10198494182067,37.223819301848,"College Certificate/Diploma","en_it","block1","nov_test","french","immediate_translation",10,"sound/test_cantait_5s.mp3","Gasser_Cantait_Sasco","Gasser_Cantait_Sasco",6248,1,0,0,0,0,0,50,50,NA,NA,8,10,NA
"FE10","French-English","Female",3.10198494182067,37.223819301848,"College Certificate/Diploma","en_it","block1","nov_test","french","immediate_translation",11,"sound/test_cantait_5s.mp3","Gasser_Cantait_Sasco","Gasser_Cantait_Sasco",2915,1,0,0,0,0,0,50,50,NA,NA,8,10,NA
"FE10","French-English","Female",3.10198494182067,37.223819301848,"College Certificate/Diploma","en_it","block1","nov_test","french","immediate_translation",12,"sound/test_sidon_5s.mp3","Waydle_Sidon_Delvo","Waydle_Sidon_Delvo",1341,1,0,0,0,0,0,50,50,NA,NA,8,10,NA
"FE10","French-English","Female",3.10198494182067,37.223819301848,"College Certificate/Diploma","en_it","block2","nov_learn","english","one_language_at_a_time",1,"sound/learning_blicket_look.mp3","Blicket_Puismenne_Kina","",7992,1,0,0,0,0,0,50,50,NA,NA,8,10,NA
"FE10","French-English","Female",3.10198494182067,37.223819301848,"College Certificate/Diploma","en_it","block2","nov_learn","english","one_language_at_a_time",2,"sound/learning_blicket_here.mp3","Blicket_Puismenne_Kina","",2923,1,0,0,0,0,0,50,50,NA,NA,8,10,NA
"FE10","French-English","Female",3.10198494182067,37.223819301848,"College Certificate/Diploma","en_it","block2","nov_learn","english","one_language_at_a_time",3,"sound/learning_blicket_look.mp3","Blicket_Puismenne_Kina","",416,1,0,0,0,0,0,50,50,NA,NA,8,10,NA
"FE10","French-English","Female",3.10198494182067,37.223819301848,"College Certificate/Diploma","en_it","block2","nov_learn","french","one_language_at_a_time",4,"sound/learning_puismenne_voici.mp3","Blicket_Puismenne_Kina","",1811,1,0,0,0,0,0,50,50,NA,NA,8,10,NA
"FE10","French-English","Female",3.10198494182067,37.223819301848,"College Certificate/Diploma","en_it","block2","nov_learn","french","one_language_at_a_time",5,"sound/learning_puismenne_voici.mp3","Blicket_Puismenne_Kina","",3723,1,0,0,0,0,0,50,50,NA,NA,8,10,NA
"FE10","French-English","Female",3.10198494182067,37.223819301848,"College Certificate/Diploma","en_it","block2","nov_learn","french","one_language_at_a_time",6,"sound/learning_puismenne_regarde.mp3","Blicket_Puismenne_Kina","",2253,1,0,0,0,0,0,50,50,NA,NA,8,10,NA
"FE10","French-English","Female",3.10198494182067,37.223819301848,"College Certificate/Diploma","en_it","block2","nov_learn","english","one_language_at_a_time",7,"sound/learning_tulver_look.mp3","Tulver_Donquete_Pifa","",792,1,0,0,0,0,0,50,50,NA,NA,8,10,NA
"FE10","French-English","Female",3.10198494182067,37.223819301848,"College Certificate/Diploma","en_it","block2","nov_learn","english","one_language_at_a_time",8,"sound/learning_tulver_here.mp3","Tulver_Donquete_Pifa","",1173,1,0,0,0,0,0,50,50,NA,NA,8,10,NA
"FE10","French-English","Female",3.10198494182067,37.223819301848,"College Certificate/Diploma","en_it","block2","nov_learn","english","one_language_at_a_time",9,"sound/learning_tulver_here.mp3","Tulver_Donquete_Pifa","",928,1,0,0,0,0,0,50,50,NA,NA,8,10,NA
"FE10","French-English","Female",3.10198494182067,37.223819301848,"College Certificate/Diploma","en_it","block2","nov_learn","french","one_language_at_a_time",10,"sound/learning_donquete_regarde.mp3","Tulver_Donquete_Pifa","",1192,1,0,0,0,0,0,50,50,NA,NA,8,10,NA
"FE10","French-English","Female",3.10198494182067,37.223819301848,"College Certificate/Diploma","en_it","block2","nov_learn","french","one_language_at_a_time",11,"sound/learning_donquete_voici.mp3","Tulver_Donquete_Pifa","",2901,1,0,0,0,0,0,50,50,NA,NA,8,10,NA
"FE10","French-English","Female",3.10198494182067,37.223819301848,"College Certificate/Diploma","en_it","block2","nov_learn","french","one_language_at_a_time",12,"sound/learning_donquete_regarde.mp3","Tulver_Donquete_Pifa","",1544,1,0,0,0,0,0,50,50,NA,NA,8,10,NA
"FE10","French-English","Female",3.10198494182067,37.223819301848,"College Certificate/Diploma","en_it","block2","nov_test","english","one_language_at_a_time",1,"sound/test_blicket_5s.mp3","Blicket_Puismenne_Kina","Blicket_Puismenne_Kina",2736,1,0,0,0,0,0,50,50,NA,NA,8,10,NA
"FE10","French-English","Female",3.10198494182067,37.223819301848,"College Certificate/Diploma","en_it","block2","nov_test","english","one_language_at_a_time",2,"sound/test_tulver_5s.mp3","Tulver_Donquete_Pifa","Tulver_Donquete_Pifa",955,1,0,0,0,0,0,50,50,NA,NA,8,10,NA
"FE10","French-English","Female",3.10198494182067,37.223819301848,"College Certificate/Diploma","en_it","block2","nov_test","english","one_language_at_a_time",3,"sound/test_blicket_5s.mp3","Blicket_Puismenne_Kina","Blicket_Puismenne_Kina",1277,1,0,0,0,0,0,50,50,NA,NA,8,10,NA
"FE10","French-English","Female",3.10198494182067,37.223819301848,"College Certificate/Diploma","en_it","block2","nov_test","english","one_language_at_a_time",4,"sound/test_blicket_5s.mp3","Blicket_Puismenne_Kina","Blicket_Puismenne_Kina",1117,1,0,0,0,0,0,50,50,NA,NA,8,10,NA
"FE10","French-English","Female",3.10198494182067,37.223819301848,"College Certificate/Diploma","en_it","block2","nov_test","english","one_language_at_a_time",5,"sound/test_tulver_5s.mp3","Tulver_Donquete_Pifa","Tulver_Donquete_Pifa",907,1,0,0,0,0,0,50,50,NA,NA,8,10,NA
"FE10","French-English","Female",3.10198494182067,37.223819301848,"College Certificate/Diploma","en_it","block2","nov_test","english","one_language_at_a_time",6,"sound/test_tulver_5s.mp3","Tulver_Donquete_Pifa","Tulver_Donquete_Pifa",2088,1,0,0,0,0,0,50,50,NA,NA,8,10,NA
"FE10","French-English","Female",3.10198494182067,37.223819301848,"College Certificate/Diploma","en_it","block2","nov_test","french","one_language_at_a_time",7,"sound/test_donquete_5s.mp3","Tulver_Donquete_Pifa","Blicket_Puismenne_Kina",4413,0,0,0,0,0,0,50,50,NA,NA,8,10,NA
"FE10","French-English","Female",3.10198494182067,37.223819301848,"College Certificate/Diploma","en_it","block2","nov_test","french","one_language_at_a_time",8,"sound/test_puismenne_5s.mp3","Blicket_Puismenne_Kina","Tulver_Donquete_Pifa",1008,0,0,0,0,0,0,50,50,NA,NA,8,10,NA
"FE10","French-English","Female",3.10198494182067,37.223819301848,"College Certificate/Diploma","en_it","block2","nov_test","french","one_language_at_a_time",9,"sound/test_puismenne_5s.mp3","Blicket_Puismenne_Kina","Tulver_Donquete_Pifa",2859,0,0,0,0,0,0,50,50,NA,NA,8,10,NA
"FE10","French-English","Female",3.10198494182067,37.223819301848,"College Certificate/Diploma","en_it","block2","nov_test","french","one_language_at_a_time",10,"sound/test_donquete_5s.mp3","Tulver_Donquete_Pifa","Blicket_Puismenne_Kina",2555,0,0,0,0,0,0,50,50,NA,NA,8,10,NA
"FE10","French-English","Female",3.10198494182067,37.223819301848,"College Certificate/Diploma","en_it","block2","nov_test","french","one_language_at_a_time",11,"sound/test_donquete_5s.mp3","Tulver_Donquete_Pifa","Blicket_Puismenne_Kina",6539,0,0,0,0,0,0,50,50,NA,NA,8,10,NA
"FE10","French-English","Female",3.10198494182067,37.223819301848,"College Certificate/Diploma","en_it","block2","nov_test","french","one_language_at_a_time",12,"sound/test_puismenne_5s.mp3","Blicket_Puismenne_Kina","Tulver_Donquete_Pifa",512,0,0,0,0,0,0,50,50,NA,NA,8,10,NA
"FE19","French-English","Male",4.68172484599589,56.1806981519507,"College Certificate/Diploma","en_it","familiar","fam_test","english","familiar",1,"sound/familiar_spoon_5s.mp3","spoon","spoon",2691,1,0,1,0,0,0,60,40,NA,NA,8,5,NA
"FE19","French-English","Male",4.68172484599589,56.1806981519507,"College Certificate/Diploma","en_it","familiar","fam_test","english","familiar",2,"sound/familiar_cookie_5s.mp3","cookie","cookie",704,1,0,1,0,0,0,60,40,NA,NA,8,5,NA
"FE19","French-English","Male",4.68172484599589,56.1806981519507,"College Certificate/Diploma","en_it","familiar","fam_test","english","familiar",3,"sound/familiar_nose_5s.mp3","nose","nose",643,1,0,1,0,0,0,60,40,NA,NA,8,5,NA
"FE19","French-English","Male",4.68172484599589,56.1806981519507,"College Certificate/Diploma","en_it","familiar","fam_test","english","familiar",4,"sound/familiar_key_5s.mp3","key","key",643,1,0,1,0,0,0,60,40,NA,NA,8,5,NA
"FE19","French-English","Male",4.68172484599589,56.1806981519507,"College Certificate/Diploma","en_it","familiar","fam_test","english","familiar",5,"sound/familiar_doggy_5s.mp3","doggy","doggy",387,1,0,1,0,0,0,60,40,NA,NA,8,5,NA
"FE19","French-English","Male",4.68172484599589,56.1806981519507,"College Certificate/Diploma","en_it","familiar","fam_test","english","familiar",6,"sound/familiar_book_5s.mp3","book","book",1411,1,0,1,0,0,0,60,40,NA,NA,8,5,NA
"FE19","French-English","Male",4.68172484599589,56.1806981519507,"College Certificate/Diploma","en_it","familiar","fam_test","french","familiar",7,"sound/familiar_poupee_5s.mp3","doll","doll",1088,1,0,1,0,0,0,60,40,NA,NA,8,5,NA
"FE19","French-English","Male",4.68172484599589,56.1806981519507,"College Certificate/Diploma","en_it","familiar","fam_test","french","familiar",8,"sound/familiar_chat_5s.mp3","kitty","kitty",832,1,0,1,0,0,0,60,40,NA,NA,8,5,NA
"FE19","French-English","Male",4.68172484599589,56.1806981519507,"College Certificate/Diploma","en_it","familiar","fam_test","french","familiar",9,"sound/familiar_main_5s.mp3","hand","chair",1347,0,0,1,0,0,0,60,40,NA,NA,8,5,NA
"FE19","French-English","Male",4.68172484599589,56.1806981519507,"College Certificate/Diploma","en_it","familiar","fam_test","french","familiar",10,"sound/familiar_pied_5s.mp3","foot","foot",963,1,0,1,0,0,0,60,40,NA,NA,8,5,NA
"FE19","French-English","Male",4.68172484599589,56.1806981519507,"College Certificate/Diploma","en_it","familiar","fam_test","french","familiar",11,"sound/familiar_chaise_5s.mp3","chair","chair",1795,1,0,1,0,0,0,60,40,NA,NA,8,5,NA
"FE19","French-English","Male",4.68172484599589,56.1806981519507,"College Certificate/Diploma","en_it","familiar","fam_test","french","familiar",12,"sound/familiar_bouche_5s.mp3","mouth","mouth",963,1,0,1,0,0,0,60,40,NA,NA,8,5,NA
"FE19","French-English","Male",4.68172484599589,56.1806981519507,"College Certificate/Diploma","en_it","block1","nov_learn","english-french","immediate_translation",1,"sound/learning_waydle_here.mp3","Waydle_Sidon_Delvo","",963,1,0,1,0,0,0,60,40,NA,NA,8,5,NA
"FE19","French-English","Male",4.68172484599589,56.1806981519507,"College Certificate/Diploma","en_it","block1","nov_learn","english-french","immediate_translation",2,"sound/learning_sidon_voici.mp3","Waydle_Sidon_Delvo","",0,1,0,1,0,0,0,60,40,NA,NA,8,5,NA
"FE19","French-English","Male",4.68172484599589,56.1806981519507,"College Certificate/Diploma","en_it","block1","nov_learn","english-french","immediate_translation",3,"sound/learning_waydle_look.mp3","Waydle_Sidon_Delvo","",2627,1,0,1,0,0,0,60,40,NA,NA,8,5,NA
"FE19","French-English","Male",4.68172484599589,56.1806981519507,"College Certificate/Diploma","en_it","block1","nov_learn","english-french","immediate_translation",4,"sound/learning_sidon_regarde.mp3","Waydle_Sidon_Delvo","",640,1,0,1,0,0,0,60,40,NA,NA,8,5,NA
"FE19","French-English","Male",4.68172484599589,56.1806981519507,"College Certificate/Diploma","en_it","block1","nov_learn","english-french","immediate_translation",5,"sound/learning_waydle_here.mp3","Waydle_Sidon_Delvo","",2565,1,0,1,0,0,0,60,40,NA,NA,8,5,NA
"FE19","French-English","Male",4.68172484599589,56.1806981519507,"College Certificate/Diploma","en_it","block1","nov_learn","english-french","immediate_translation",6,"sound/learning_sidon_voici.mp3","Waydle_Sidon_Delvo","",3331,1,0,1,0,0,0,60,40,NA,NA,8,5,NA
"FE19","French-English","Male",4.68172484599589,56.1806981519507,"College Certificate/Diploma","en_it","block1","nov_learn","english-french","immediate_translation",7,"sound/learning_gasser_here.mp3","Gasser_Cantait_Sasco","",3077,1,0,1,0,0,0,60,40,NA,NA,8,5,NA
"FE19","French-English","Male",4.68172484599589,56.1806981519507,"College Certificate/Diploma","en_it","block1","nov_learn","english-french","immediate_translation",8,"sound/learning_cantait_voici.mp3","Gasser_Cantait_Sasco","",2885,1,0,1,0,0,0,60,40,NA,NA,8,5,NA
"FE19","French-English","Male",4.68172484599589,56.1806981519507,"College Certificate/Diploma","en_it","block1","nov_learn","english-french","immediate_translation",9,"sound/learning_gasser_look.mp3","Gasser_Cantait_Sasco","",3203,1,0,1,0,0,0,60,40,NA,NA,8,5,NA
"FE19","French-English","Male",4.68172484599589,56.1806981519507,"College Certificate/Diploma","en_it","block1","nov_learn","english-french","immediate_translation",10,"sound/learning_cantait_regarde.mp3","Gasser_Cantait_Sasco","",2115,1,0,1,0,0,0,60,40,NA,NA,8,5,NA
"FE19","French-English","Male",4.68172484599589,56.1806981519507,"College Certificate/Diploma","en_it","block1","nov_learn","english-french","immediate_translation",11,"sound/learning_gasser_look.mp3","Gasser_Cantait_Sasco","",2885,1,0,1,0,0,0,60,40,NA,NA,8,5,NA
"FE19","French-English","Male",4.68172484599589,56.1806981519507,"College Certificate/Diploma","en_it","block1","nov_learn","english-french","immediate_translation",12,"sound/learning_cantait_regarde.mp3","Gasser_Cantait_Sasco","",2693,1,0,1,0,0,0,60,40,NA,NA,8,5,NA
"FE19","French-English","Male",4.68172484599589,56.1806981519507,"College Certificate/Diploma","en_it","block1","nov_test","english","immediate_translation",1,"sound/test_waydle_5s.mp3","Waydle_Sidon_Delvo","Waydle_Sidon_Delvo",832,1,0,1,0,0,0,60,40,NA,NA,8,5,NA
"FE19","French-English","Male",4.68172484599589,56.1806981519507,"College Certificate/Diploma","en_it","block1","nov_test","english","immediate_translation",2,"sound/test_gasser_5s.mp3","Gasser_Cantait_Sasco","Gasser_Cantait_Sasco",448,1,0,1,0,0,0,60,40,NA,NA,8,5,NA
"FE19","French-English","Male",4.68172484599589,56.1806981519507,"College Certificate/Diploma","en_it","block1","nov_test","english","immediate_translation",3,"sound/test_gasser_5s.mp3","Gasser_Cantait_Sasco","Gasser_Cantait_Sasco",576,1,0,1,0,0,0,60,40,NA,NA,8,5,NA
"FE19","French-English","Male",4.68172484599589,56.1806981519507,"College Certificate/Diploma","en_it","block1","nov_test","english","immediate_translation",4,"sound/test_waydle_5s.mp3","Waydle_Sidon_Delvo","Waydle_Sidon_Delvo",640,1,0,1,0,0,0,60,40,NA,NA,8,5,NA
"FE19","French-English","Male",4.68172484599589,56.1806981519507,"College Certificate/Diploma","en_it","block1","nov_test","english","immediate_translation",5,"sound/test_waydle_5s.mp3","Waydle_Sidon_Delvo","Gasser_Cantait_Sasco",1795,0,0,1,0,0,0,60,40,NA,NA,8,5,NA
"FE19","French-English","Male",4.68172484599589,56.1806981519507,"College Certificate/Diploma","en_it","block1","nov_test","english","immediate_translation",6,"sound/test_gasser_5s.mp3","Gasser_Cantait_Sasco","Gasser_Cantait_Sasco",576,1,0,1,0,0,0,60,40,NA,NA,8,5,NA
"FE19","French-English","Male",4.68172484599589,56.1806981519507,"College Certificate/Diploma","en_it","block1","nov_test","french","immediate_translation",7,"sound/test_cantait_5s.mp3","Gasser_Cantait_Sasco","Waydle_Sidon_Delvo",4677,0,0,1,0,0,0,60,40,NA,NA,8,5,NA
"FE19","French-English","Male",4.68172484599589,56.1806981519507,"College Certificate/Diploma","en_it","block1","nov_test","french","immediate_translation",8,"sound/test_sidon_5s.mp3","Waydle_Sidon_Delvo","Gasser_Cantait_Sasco",1283,0,0,1,0,0,0,60,40,NA,NA,8,5,NA
"FE19","French-English","Male",4.68172484599589,56.1806981519507,"College Certificate/Diploma","en_it","block1","nov_test","french","immediate_translation",9,"sound/test_sidon_5s.mp3","Waydle_Sidon_Delvo",NA,NA,NA,0,1,0,0,0,60,40,NA,NA,8,5,NA
"FE19","French-English","Male",4.68172484599589,56.1806981519507,"College Certificate/Diploma","en_it","block1","nov_test","french","immediate_translation",10,"sound/test_cantait_5s.mp3","Gasser_Cantait_Sasco","Waydle_Sidon_Delvo",6859,0,0,1,0,0,0,60,40,NA,NA,8,5,NA
"FE19","French-English","Male",4.68172484599589,56.1806981519507,"College Certificate/Diploma","en_it","block1","nov_test","french","immediate_translation",11,"sound/test_cantait_5s.mp3","Gasser_Cantait_Sasco","Waydle_Sidon_Delvo",2821,0,0,1,0,0,0,60,40,NA,NA,8,5,NA
"FE19","French-English","Male",4.68172484599589,56.1806981519507,"College Certificate/Diploma","en_it","block1","nov_test","french","immediate_translation",12,"sound/test_sidon_5s.mp3","Waydle_Sidon_Delvo","Waydle_Sidon_Delvo",3973,1,0,1,0,0,0,60,40,NA,NA,8,5,NA
"FE19","French-English","Male",4.68172484599589,56.1806981519507,"College Certificate/Diploma","en_it","block2","nov_learn","english","one_language_at_a_time",1,"sound/learning_blicket_look.mp3","Blicket_Puismenne_Kina","",835,1,0,1,0,0,0,60,40,NA,NA,8,5,NA
"FE19","French-English","Male",4.68172484599589,56.1806981519507,"College Certificate/Diploma","en_it","block2","nov_learn","english","one_language_at_a_time",2,"sound/learning_blicket_here.mp3","Blicket_Puismenne_Kina","",2051,1,0,1,0,0,0,60,40,NA,NA,8,5,NA
"FE19","French-English","Male",4.68172484599589,56.1806981519507,"College Certificate/Diploma","en_it","block2","nov_learn","english","one_language_at_a_time",3,"sound/learning_blicket_look.mp3","Blicket_Puismenne_Kina","",643,1,0,1,0,0,0,60,40,NA,NA,8,5,NA
"FE19","French-English","Male",4.68172484599589,56.1806981519507,"College Certificate/Diploma","en_it","block2","nov_learn","french","one_language_at_a_time",4,"sound/learning_puismenne_voici.mp3","Blicket_Puismenne_Kina","",579,1,0,1,0,0,0,60,40,NA,NA,8,5,NA
"FE19","French-English","Male",4.68172484599589,56.1806981519507,"College Certificate/Diploma","en_it","block2","nov_learn","french","one_language_at_a_time",5,"sound/learning_puismenne_voici.mp3","Blicket_Puismenne_Kina","",707,1,0,1,0,0,0,60,40,NA,NA,8,5,NA
"FE19","French-English","Male",4.68172484599589,56.1806981519507,"College Certificate/Diploma","en_it","block2","nov_learn","french","one_language_at_a_time",6,"sound/learning_puismenne_regarde.mp3","Blicket_Puismenne_Kina","",3075,1,0,1,0,0,0,60,40,NA,NA,8,5,NA
"FE19","French-English","Male",4.68172484599589,56.1806981519507,"College Certificate/Diploma","en_it","block2","nov_learn","english","one_language_at_a_time",7,"sound/learning_tulver_look.mp3","Tulver_Donquete_Pifa","",643,1,0,1,0,0,0,60,40,NA,NA,8,5,NA
"FE19","French-English","Male",4.68172484599589,56.1806981519507,"College Certificate/Diploma","en_it","block2","nov_learn","english","one_language_at_a_time",8,"sound/learning_tulver_here.mp3","Tulver_Donquete_Pifa","",643,1,0,1,0,0,0,60,40,NA,NA,8,5,NA
"FE19","French-English","Male",4.68172484599589,56.1806981519507,"College Certificate/Diploma","en_it","block2","nov_learn","english","one_language_at_a_time",9,"sound/learning_tulver_here.mp3","Tulver_Donquete_Pifa","",640,1,0,1,0,0,0,60,40,NA,NA,8,5,NA
"FE19","French-English","Male",4.68172484599589,56.1806981519507,"College Certificate/Diploma","en_it","block2","nov_learn","french","one_language_at_a_time",10,"sound/learning_donquete_regarde.mp3","Tulver_Donquete_Pifa","",1475,1,0,1,0,0,0,60,40,NA,NA,8,5,NA
"FE19","French-English","Male",4.68172484599589,56.1806981519507,"College Certificate/Diploma","en_it","block2","nov_learn","french","one_language_at_a_time",11,"sound/learning_donquete_voici.mp3","Tulver_Donquete_Pifa",NA,NA,NA,0,1,0,0,0,60,40,NA,NA,8,5,NA
"FE19","French-English","Male",4.68172484599589,56.1806981519507,"College Certificate/Diploma","en_it","block2","nov_learn","french","one_language_at_a_time",12,"sound/learning_donquete_regarde.mp3","Tulver_Donquete_Pifa","",3331,1,0,1,0,0,0,60,40,NA,NA,8,5,NA
"FE19","French-English","Male",4.68172484599589,56.1806981519507,"College Certificate/Diploma","en_it","block2","nov_test","english","one_language_at_a_time",1,"sound/test_blicket_5s.mp3","Blicket_Puismenne_Kina",NA,NA,NA,0,1,0,0,0,60,40,NA,NA,8,5,NA
"FE19","French-English","Male",4.68172484599589,56.1806981519507,"College Certificate/Diploma","en_it","block2","nov_test","english","one_language_at_a_time",2,"sound/test_tulver_5s.mp3","Tulver_Donquete_Pifa","Tulver_Donquete_Pifa",6987,1,0,1,0,0,0,60,40,NA,NA,8,5,NA
"FE21","French-English","Female",4.72005475701574,56.6406570841889,"Master’s Degree","en_it","familiar","fam_test","english","familiar",1,"sound/familiar_spoon_5s.mp3","spoon","spoon",827,1,0,0,0,0,0,39,60,NA,1,10,10,NA
"FE21","French-English","Female",4.72005475701574,56.6406570841889,"Master’s Degree","en_it","familiar","fam_test","english","familiar",2,"sound/familiar_cookie_5s.mp3","cookie","cookie",520,1,0,0,0,0,0,39,60,NA,1,10,10,NA
"FE21","French-English","Female",4.72005475701574,56.6406570841889,"Master’s Degree","en_it","familiar","fam_test","english","familiar",3,"sound/familiar_nose_5s.mp3","nose","nose",1141,1,0,0,0,0,0,39,60,NA,1,10,10,NA
"FE21","French-English","Female",4.72005475701574,56.6406570841889,"Master’s Degree","en_it","familiar","fam_test","english","familiar",4,"sound/familiar_key_5s.mp3","key","key",1043,1,0,0,0,0,0,39,60,NA,1,10,10,NA
"FE21","French-English","Female",4.72005475701574,56.6406570841889,"Master’s Degree","en_it","familiar","fam_test","english","familiar",5,"sound/familiar_doggy_5s.mp3","doggy","doggy",923,1,0,0,0,0,0,39,60,NA,1,10,10,NA
"FE21","French-English","Female",4.72005475701574,56.6406570841889,"Master’s Degree","en_it","familiar","fam_test","english","familiar",6,"sound/familiar_book_5s.mp3","book","book",2429,1,0,0,0,0,0,39,60,NA,1,10,10,NA
"FE21","French-English","Female",4.72005475701574,56.6406570841889,"Master’s Degree","en_it","familiar","fam_test","french","familiar",7,"sound/familiar_poupee_5s.mp3","doll","doll",941,1,0,0,0,0,0,39,60,NA,1,10,10,NA
"FE21","French-English","Female",4.72005475701574,56.6406570841889,"Master’s Degree","en_it","familiar","fam_test","french","familiar",8,"sound/familiar_chat_5s.mp3","kitty","kitty",568,1,0,0,0,0,0,39,60,NA,1,10,10,NA
"FE21","French-English","Female",4.72005475701574,56.6406570841889,"Master’s Degree","en_it","familiar","fam_test","french","familiar",9,"sound/familiar_main_5s.mp3","hand","hand",411,1,0,0,0,0,0,39,60,NA,1,10,10,NA
"FE21","French-English","Female",4.72005475701574,56.6406570841889,"Master’s Degree","en_it","familiar","fam_test","french","familiar",10,"sound/familiar_pied_5s.mp3","foot","foot",552,1,0,0,0,0,0,39,60,NA,1,10,10,NA
"FE21","French-English","Female",4.72005475701574,56.6406570841889,"Master’s Degree","en_it","familiar","fam_test","french","familiar",11,"sound/familiar_chaise_5s.mp3","chair","chair",757,1,0,0,0,0,0,39,60,NA,1,10,10,NA
"FE21","French-English","Female",4.72005475701574,56.6406570841889,"Master’s Degree","en_it","familiar","fam_test","french","familiar",12,"sound/familiar_bouche_5s.mp3","mouth","mouth",315,1,0,0,0,0,0,39,60,NA,1,10,10,NA
"FE21","French-English","Female",4.72005475701574,56.6406570841889,"Master’s Degree","en_it","block1","nov_learn","english-french","immediate_translation",1,"sound/learning_gasser_here.mp3","Gasser_Cantait_Sasco","",635,1,0,0,0,0,0,39,60,NA,1,10,10,NA
"FE21","French-English","Female",4.72005475701574,56.6406570841889,"Master’s Degree","en_it","block1","nov_learn","english-french","immediate_translation",2,"sound/learning_cantait_voici.mp3","Gasser_Cantait_Sasco","",515,1,0,0,0,0,0,39,60,NA,1,10,10,NA
"FE21","French-English","Female",4.72005475701574,56.6406570841889,"Master’s Degree","en_it","block1","nov_learn","english-french","immediate_translation",3,"sound/learning_gasser_look.mp3","Gasser_Cantait_Sasco","",2696,1,0,0,0,0,0,39,60,NA,1,10,10,NA
"FE21","French-English","Female",4.72005475701574,56.6406570841889,"Master’s Degree","en_it","block1","nov_learn","english-french","immediate_translation",4,"sound/learning_cantait_regarde.mp3","Gasser_Cantait_Sasco","",2573,1,0,0,0,0,0,39,60,NA,1,10,10,NA
"FE21","French-English","Female",4.72005475701574,56.6406570841889,"Master’s Degree","en_it","block1","nov_learn","english-french","immediate_translation",5,"sound/learning_gasser_look.mp3","Gasser_Cantait_Sasco","",1621,1,0,0,0,0,0,39,60,NA,1,10,10,NA
"FE21","French-English","Female",4.72005475701574,56.6406570841889,"Master’s Degree","en_it","block1","nov_learn","english-french","immediate_translation",6,"sound/learning_cantait_regarde.mp3","Gasser_Cantait_Sasco","",309,1,0,0,0,0,0,39,60,NA,1,10,10,NA
"FE21","French-English","Female",4.72005475701574,56.6406570841889,"Master’s Degree","en_it","block1","nov_learn","english-french","immediate_translation",7,"sound/learning_waydle_here.mp3","Waydle_Sidon_Delvo","",2360,1,0,0,0,0,0,39,60,NA,1,10,10,NA
"FE21","French-English","Female",4.72005475701574,56.6406570841889,"Master’s Degree","en_it","block1","nov_learn","english-french","immediate_translation",8,"sound/learning_sidon_voici.mp3","Waydle_Sidon_Delvo","",971,1,0,0,0,0,0,39,60,NA,1,10,10,NA
"FE21","French-English","Female",4.72005475701574,56.6406570841889,"Master’s Degree","en_it","block1","nov_learn","english-french","immediate_translation",9,"sound/learning_waydle_look.mp3","Waydle_Sidon_Delvo","",309,1,0,0,0,0,0,39,60,NA,1,10,10,NA
"FE21","French-English","Female",4.72005475701574,56.6406570841889,"Master’s Degree","en_it","block1","nov_learn","english-french","immediate_translation",10,"sound/learning_sidon_regarde.mp3","Waydle_Sidon_Delvo","",160,1,0,0,0,0,0,39,60,NA,1,10,10,NA
"FE21","French-English","Female",4.72005475701574,56.6406570841889,"Master’s Degree","en_it","block1","nov_learn","english-french","immediate_translation",11,"sound/learning_waydle_here.mp3","Waydle_Sidon_Delvo","",3163,1,0,0,0,0,0,39,60,NA,1,10,10,NA
"FE21","French-English","Female",4.72005475701574,56.6406570841889,"Master’s Degree","en_it","block1","nov_learn","english-french","immediate_translation",12,"sound/learning_sidon_voici.mp3","Waydle_Sidon_Delvo","",1211,1,0,0,0,0,0,39,60,NA,1,10,10,NA
"FE21","French-English","Female",4.72005475701574,56.6406570841889,"Master’s Degree","en_it","block1","nov_test","english","immediate_translation",1,"sound/test_waydle_5s.mp3","Waydle_Sidon_Delvo","Waydle_Sidon_Delvo",4221,1,0,0,0,0,0,39,60,NA,1,10,10,NA
"FE21","French-English","Female",4.72005475701574,56.6406570841889,"Master’s Degree","en_it","block1","nov_test","english","immediate_translation",2,"sound/test_gasser_5s.mp3","Gasser_Cantait_Sasco","Gasser_Cantait_Sasco",952,1,0,0,0,0,0,39,60,NA,1,10,10,NA
"FE21","French-English","Female",4.72005475701574,56.6406570841889,"Master’s Degree","en_it","block1","nov_test","english","immediate_translation",3,"sound/test_gasser_5s.mp3","Gasser_Cantait_Sasco","Gasser_Cantait_Sasco",267,1,0,0,0,0,0,39,60,NA,1,10,10,NA
"FE21","French-English","Female",4.72005475701574,56.6406570841889,"Master’s Degree","en_it","block1","nov_test","english","immediate_translation",4,"sound/test_waydle_5s.mp3","Waydle_Sidon_Delvo","Waydle_Sidon_Delvo",555,1,0,0,0,0,0,39,60,NA,1,10,10,NA
"FE21","French-English","Female",4.72005475701574,56.6406570841889,"Master’s Degree","en_it","block1","nov_test","english","immediate_translation",5,"sound/test_waydle_5s.mp3","Waydle_Sidon_Delvo","Waydle_Sidon_Delvo",739,1,0,0,0,0,0,39,60,NA,1,10,10,NA
"FE21","French-English","Female",4.72005475701574,56.6406570841889,"Master’s Degree","en_it","block1","nov_test","english","immediate_translation",6,"sound/test_gasser_5s.mp3","Gasser_Cantait_Sasco","Gasser_Cantait_Sasco",813,1,0,0,0,0,0,39,60,NA,1,10,10,NA
"FE21","French-English","Female",4.72005475701574,56.6406570841889,"Master’s Degree","en_it","block1","nov_test","french","immediate_translation",7,"sound/test_cantait_5s.mp3","Gasser_Cantait_Sasco","Waydle_Sidon_Delvo",2221,0,0,0,0,0,0,39,60,NA,1,10,10,NA
"FE21","French-English","Female",4.72005475701574,56.6406570841889,"Master’s Degree","en_it","block1","nov_test","french","immediate_translation",8,"sound/test_sidon_5s.mp3","Waydle_Sidon_Delvo","Gasser_Cantait_Sasco",216,0,0,0,0,0,0,39,60,NA,1,10,10,NA
"FE21","French-English","Female",4.72005475701574,56.6406570841889,"Master’s Degree","en_it","block1","nov_test","french","immediate_translation",9,"sound/test_sidon_5s.mp3","Waydle_Sidon_Delvo","Gasser_Cantait_Sasco",1013,0,0,0,0,0,0,39,60,NA,1,10,10,NA
"FE21","French-English","Female",4.72005475701574,56.6406570841889,"Master’s Degree","en_it","block1","nov_test","french","immediate_translation",10,"sound/test_cantait_5s.mp3","Gasser_Cantait_Sasco","Waydle_Sidon_Delvo",424,0,0,0,0,0,0,39,60,NA,1,10,10,NA
"FE21","French-English","Female",4.72005475701574,56.6406570841889,"Master’s Degree","en_it","block1","nov_test","french","immediate_translation",11,"sound/test_cantait_5s.mp3","Gasser_Cantait_Sasco","Waydle_Sidon_Delvo",187,0,0,0,0,0,0,39,60,NA,1,10,10,NA
"FE21","French-English","Female",4.72005475701574,56.6406570841889,"Master’s Degree","en_it","block1","nov_test","french","immediate_translation",12,"sound/test_sidon_5s.mp3","Waydle_Sidon_Delvo","Gasser_Cantait_Sasco",248,0,0,0,0,0,0,39,60,NA,1,10,10,NA
"FE21","French-English","Female",4.72005475701574,56.6406570841889,"Master’s Degree","en_it","block2","nov_learn","english","one_language_at_a_time",1,"sound/learning_tulver_look.mp3","Tulver_Donquete_Pifa","",352,1,0,0,0,0,0,39,60,NA,1,10,10,NA
"FE21","French-English","Female",4.72005475701574,56.6406570841889,"Master’s Degree","en_it","block2","nov_learn","english","one_language_at_a_time",2,"sound/learning_tulver_here.mp3","Tulver_Donquete_Pifa","",1512,1,0,0,0,0,0,39,60,NA,1,10,10,NA
"FE21","French-English","Female",4.72005475701574,56.6406570841889,"Master’s Degree","en_it","block2","nov_learn","english","one_language_at_a_time",3,"sound/learning_tulver_here.mp3","Tulver_Donquete_Pifa","",2592,1,0,0,0,0,0,39,60,NA,1,10,10,NA
"FE21","French-English","Female",4.72005475701574,56.6406570841889,"Master’s Degree","en_it","block2","nov_learn","french","one_language_at_a_time",4,"sound/learning_donquete_regarde.mp3","Tulver_Donquete_Pifa","",2784,1,0,0,0,0,0,39,60,NA,1,10,10,NA
"FE21","French-English","Female",4.72005475701574,56.6406570841889,"Master’s Degree","en_it","block2","nov_learn","french","one_language_at_a_time",5,"sound/learning_donquete_voici.mp3","Tulver_Donquete_Pifa","",2040,1,0,0,0,0,0,39,60,NA,1,10,10,NA
"FE21","French-English","Female",4.72005475701574,56.6406570841889,"Master’s Degree","en_it","block2","nov_learn","french","one_language_at_a_time",6,"sound/learning_donquete_regarde.mp3","Tulver_Donquete_Pifa","",2459,1,0,0,0,0,0,39,60,NA,1,10,10,NA
"FE21","French-English","Female",4.72005475701574,56.6406570841889,"Master’s Degree","en_it","block2","nov_learn","english","one_language_at_a_time",7,"sound/learning_blicket_look.mp3","Blicket_Puismenne_Kina","",2347,1,0,0,0,0,0,39,60,NA,1,10,10,NA
"FE21","French-English","Female",4.72005475701574,56.6406570841889,"Master’s Degree","en_it","block2","nov_learn","english","one_language_at_a_time",8,"sound/learning_blicket_here.mp3","Blicket_Puismenne_Kina","",2101,1,0,0,0,0,0,39,60,NA,1,10,10,NA
"FE21","French-English","Female",4.72005475701574,56.6406570841889,"Master’s Degree","en_it","block2","nov_learn","english","one_language_at_a_time",9,"sound/learning_blicket_look.mp3","Blicket_Puismenne_Kina","",1781,1,0,0,0,0,0,39,60,NA,1,10,10,NA
"FE21","French-English","Female",4.72005475701574,56.6406570841889,"Master’s Degree","en_it","block2","nov_learn","french","one_language_at_a_time",10,"sound/learning_puismenne_voici.mp3","Blicket_Puismenne_Kina","",2133,1,0,0,0,0,0,39,60,NA,1,10,10,NA
"FE21","French-English","Female",4.72005475701574,56.6406570841889,"Master’s Degree","en_it","block2","nov_learn","french","one_language_at_a_time",11,"sound/learning_puismenne_voici.mp3","Blicket_Puismenne_Kina","",1885,1,0,0,0,0,0,39,60,NA,1,10,10,NA
"FE21","French-English","Female",4.72005475701574,56.6406570841889,"Master’s Degree","en_it","block2","nov_learn","french","one_language_at_a_time",12,"sound/learning_puismenne_regarde.mp3","Blicket_Puismenne_Kina","",1389,1,0,0,0,0,0,39,60,NA,1,10,10,NA
"FE21","French-English","Female",4.72005475701574,56.6406570841889,"Master’s Degree","en_it","block2","nov_test","english","one_language_at_a_time",1,"sound/test_blicket_5s.mp3","Blicket_Puismenne_Kina","Tulver_Donquete_Pifa",939,0,0,0,0,0,0,39,60,NA,1,10,10,NA
"FE21","French-English","Female",4.72005475701574,56.6406570841889,"Master’s Degree","en_it","block2","nov_test","english","one_language_at_a_time",2,"sound/test_tulver_5s.mp3","Tulver_Donquete_Pifa","Blicket_Puismenne_Kina",168,0,0,0,0,0,0,39,60,NA,1,10,10,NA
"FE21","French-English","Female",4.72005475701574,56.6406570841889,"Master’s Degree","en_it","block2","nov_test","english","one_language_at_a_time",3,"sound/test_blicket_5s.mp3","Blicket_Puismenne_Kina","Tulver_Donquete_Pifa",3667,0,0,0,0,0,0,39,60,NA,1,10,10,NA
"FE21","French-English","Female",4.72005475701574,56.6406570841889,"Master’s Degree","en_it","block2","nov_test","english","one_language_at_a_time",4,"sound/test_blicket_5s.mp3","Blicket_Puismenne_Kina","Blicket_Puismenne_Kina",1784,1,0,0,0,0,0,39,60,NA,1,10,10,NA
"FE21","French-English","Female",4.72005475701574,56.6406570841889,"Master’s Degree","en_it","block2","nov_test","english","one_language_at_a_time",5,"sound/test_tulver_5s.mp3","Tulver_Donquete_Pifa","Tulver_Donquete_Pifa",1344,1,0,0,0,0,0,39,60,NA,1,10,10,NA
"FE21","French-English","Female",4.72005475701574,56.6406570841889,"Master’s Degree","en_it","block2","nov_test","english","one_language_at_a_time",6,"sound/test_tulver_5s.mp3","Tulver_Donquete_Pifa","Blicket_Puismenne_Kina",2915,0,0,0,0,0,0,39,60,NA,1,10,10,NA
"FE21","French-English","Female",4.72005475701574,56.6406570841889,"Master’s Degree","en_it","block2","nov_test","french","one_language_at_a_time",7,"sound/test_donquete_5s.mp3","Tulver_Donquete_Pifa","Tulver_Donquete_Pifa",1040,1,0,0,0,0,0,39,60,NA,1,10,10,NA
"FE21","French-English","Female",4.72005475701574,56.6406570841889,"Master’s Degree","en_it","block2","nov_test","french","one_language_at_a_time",8,"sound/test_puismenne_5s.mp3","Blicket_Puismenne_Kina","Blicket_Puismenne_Kina",1456,1,0,0,0,0,0,39,60,NA,1,10,10,NA
"FE21","French-English","Female",4.72005475701574,56.6406570841889,"Master’s Degree","en_it","block2","nov_test","french","one_language_at_a_time",9,"sound/test_puismenne_5s.mp3","Blicket_Puismenne_Kina","Blicket_Puismenne_Kina",587,1,0,0,0,0,0,39,60,NA,1,10,10,NA
"FE21","French-English","Female",4.72005475701574,56.6406570841889,"Master’s Degree","en_it","block2","nov_test","french","one_language_at_a_time",10,"sound/test_donquete_5s.mp3","Tulver_Donquete_Pifa","Tulver_Donquete_Pifa",443,1,0,0,0,0,0,39,60,NA,1,10,10,NA
"FE21","French-English","Female",4.72005475701574,56.6406570841889,"Master’s Degree","en_it","block2","nov_test","french","one_language_at_a_time",11,"sound/test_donquete_5s.mp3","Tulver_Donquete_Pifa","Blicket_Puismenne_Kina",7371,0,0,0,0,0,0,39,60,NA,1,10,10,NA
"FE21","French-English","Female",4.72005475701574,56.6406570841889,"Master’s Degree","en_it","block2","nov_test","french","one_language_at_a_time",12,"sound/test_puismenne_5s.mp3","Blicket_Puismenne_Kina","Blicket_Puismenne_Kina",1304,1,0,0,0,0,0,39,60,NA,1,10,10,NA
"FE26","French-English","Male",4.83230663928816,57.9876796714579,"Bachelor’s Degree","en_it","familiar","fam_test","english","familiar",1,"sound/familiar_spoon_5s.mp3","spoon","spoon",1299,1,0,0,0,0,0,40,25,NA,35,8,5,NA
"FE26","French-English","Male",4.83230663928816,57.9876796714579,"Bachelor’s Degree","en_it","familiar","fam_test","english","familiar",2,"sound/familiar_cookie_5s.mp3","cookie","cookie",440,1,0,0,0,0,0,40,25,NA,35,8,5,NA
"FE26","French-English","Male",4.83230663928816,57.9876796714579,"Bachelor’s Degree","en_it","familiar","fam_test","english","familiar",3,"sound/familiar_nose_5s.mp3","nose","nose",61,1,0,0,0,0,0,40,25,NA,35,8,5,NA
"FE26","French-English","Male",4.83230663928816,57.9876796714579,"Bachelor’s Degree","en_it","familiar","fam_test","english","familiar",4,"sound/familiar_key_5s.mp3","key","key",269,1,0,0,0,0,0,40,25,NA,35,8,5,NA
"FE26","French-English","Male",4.83230663928816,57.9876796714579,"Bachelor’s Degree","en_it","familiar","fam_test","english","familiar",5,"sound/familiar_doggy_5s.mp3","doggy","doggy",971,1,0,0,0,0,0,40,25,NA,35,8,5,NA
"FE26","French-English","Male",4.83230663928816,57.9876796714579,"Bachelor’s Degree","en_it","familiar","fam_test","english","familiar",6,"sound/familiar_book_5s.mp3","book","book",2421,1,0,0,0,0,0,40,25,NA,35,8,5,NA
"FE26","French-English","Male",4.83230663928816,57.9876796714579,"Bachelor’s Degree","en_it","familiar","fam_test","french","familiar",7,"sound/familiar_poupee_5s.mp3","doll","doll",328,1,0,0,0,0,0,40,25,NA,35,8,5,NA
"FE26","French-English","Male",4.83230663928816,57.9876796714579,"Bachelor’s Degree","en_it","familiar","fam_test","french","familiar",8,"sound/familiar_chat_5s.mp3","kitty","kitty",1869,1,0,0,0,0,0,40,25,NA,35,8,5,NA
"FE26","French-English","Male",4.83230663928816,57.9876796714579,"Bachelor’s Degree","en_it","familiar","fam_test","french","familiar",9,"sound/familiar_main_5s.mp3","hand","hand",520,1,0,0,0,0,0,40,25,NA,35,8,5,NA
"FE26","French-English","Male",4.83230663928816,57.9876796714579,"Bachelor’s Degree","en_it","familiar","fam_test","french","familiar",10,"sound/familiar_pied_5s.mp3","foot","doll",101,0,0,0,0,0,0,40,25,NA,35,8,5,NA
"FE26","French-English","Male",4.83230663928816,57.9876796714579,"Bachelor’s Degree","en_it","familiar","fam_test","french","familiar",11,"sound/familiar_chaise_5s.mp3","chair","chair",1261,1,0,0,0,0,0,40,25,NA,35,8,5,NA
"FE26","French-English","Male",4.83230663928816,57.9876796714579,"Bachelor’s Degree","en_it","familiar","fam_test","french","familiar",12,"sound/familiar_bouche_5s.mp3","mouth","mouth",531,1,0,0,0,0,0,40,25,NA,35,8,5,NA
"FE26","French-English","Male",4.83230663928816,57.9876796714579,"Bachelor’s Degree","en_it","block1","nov_learn","english-french","immediate_translation",1,"sound/learning_waydle_here.mp3","Waydle_Sidon_Delvo","",821,1,0,0,0,0,0,40,25,NA,35,8,5,NA
"FE26","French-English","Male",4.83230663928816,57.9876796714579,"Bachelor’s Degree","en_it","block1","nov_learn","english-french","immediate_translation",2,"sound/learning_sidon_voici.mp3","Waydle_Sidon_Delvo","",840,1,0,0,0,0,0,40,25,NA,35,8,5,NA
"FE26","French-English","Male",4.83230663928816,57.9876796714579,"Bachelor’s Degree","en_it","block1","nov_learn","english-french","immediate_translation",3,"sound/learning_waydle_look.mp3","Waydle_Sidon_Delvo","",2600,1,0,0,0,0,0,40,25,NA,35,8,5,NA
"FE26","French-English","Male",4.83230663928816,57.9876796714579,"Bachelor’s Degree","en_it","block1","nov_learn","english-french","immediate_translation",4,"sound/learning_sidon_regarde.mp3","Waydle_Sidon_Delvo","",1728,1,0,0,0,0,0,40,25,NA,35,8,5,NA
"FE26","French-English","Male",4.83230663928816,57.9876796714579,"Bachelor’s Degree","en_it","block1","nov_learn","english-french","immediate_translation",5,"sound/learning_waydle_here.mp3","Waydle_Sidon_Delvo","",1269,1,0,0,0,0,0,40,25,NA,35,8,5,NA
"FE26","French-English","Male",4.83230663928816,57.9876796714579,"Bachelor’s Degree","en_it","block1","nov_learn","english-french","immediate_translation",6,"sound/learning_sidon_voici.mp3","Waydle_Sidon_Delvo","",419,1,0,0,0,0,0,40,25,NA,35,8,5,NA
"FE26","French-English","Male",4.83230663928816,57.9876796714579,"Bachelor’s Degree","en_it","block1","nov_learn","english-french","immediate_translation",7,"sound/learning_gasser_here.mp3","Gasser_Cantait_Sasco","",2411,1,0,0,0,0,0,40,25,NA,35,8,5,NA
"FE26","French-English","Male",4.83230663928816,57.9876796714579,"Bachelor’s Degree","en_it","block1","nov_learn","english-french","immediate_translation",8,"sound/learning_cantait_voici.mp3","Gasser_Cantait_Sasco","",2520,1,0,0,0,0,0,40,25,NA,35,8,5,NA
"FE26","French-English","Male",4.83230663928816,57.9876796714579,"Bachelor’s Degree","en_it","block1","nov_learn","english-french","immediate_translation",9,"sound/learning_gasser_look.mp3","Gasser_Cantait_Sasco","",528,1,0,0,0,0,0,40,25,NA,35,8,5,NA
"FE26","French-English","Male",4.83230663928816,57.9876796714579,"Bachelor’s Degree","en_it","block1","nov_learn","english-french","immediate_translation",10,"sound/learning_cantait_regarde.mp3","Gasser_Cantait_Sasco","",2979,1,0,0,0,0,0,40,25,NA,35,8,5,NA
"FE26","French-English","Male",4.83230663928816,57.9876796714579,"Bachelor’s Degree","en_it","block1","nov_learn","english-french","immediate_translation",11,"sound/learning_gasser_look.mp3","Gasser_Cantait_Sasco","",1848,1,0,0,0,0,0,40,25,NA,35,8,5,NA
"FE26","French-English","Male",4.83230663928816,57.9876796714579,"Bachelor’s Degree","en_it","block1","nov_learn","english-french","immediate_translation",12,"sound/learning_cantait_regarde.mp3","Gasser_Cantait_Sasco","",451,1,0,0,0,0,0,40,25,NA,35,8,5,NA
"FE26","French-English","Male",4.83230663928816,57.9876796714579,"Bachelor’s Degree","en_it","block1","nov_test","english","immediate_translation",1,"sound/test_waydle_5s.mp3","Waydle_Sidon_Delvo","Gasser_Cantait_Sasco",749,0,0,0,0,0,0,40,25,NA,35,8,5,NA
"FE26","French-English","Male",4.83230663928816,57.9876796714579,"Bachelor’s Degree","en_it","block1","nov_test","english","immediate_translation",2,"sound/test_gasser_5s.mp3","Gasser_Cantait_Sasco","Waydle_Sidon_Delvo",800,0,0,0,0,0,0,40,25,NA,35,8,5,NA
"FE26","French-English","Male",4.83230663928816,57.9876796714579,"Bachelor’s Degree","en_it","block1","nov_test","english","immediate_translation",3,"sound/test_gasser_5s.mp3","Gasser_Cantait_Sasco","Waydle_Sidon_Delvo",848,0,0,0,0,0,0,40,25,NA,35,8,5,NA
"FE26","French-English","Male",4.83230663928816,57.9876796714579,"Bachelor’s Degree","en_it","block1","nov_test","english","immediate_translation",4,"sound/test_waydle_5s.mp3","Waydle_Sidon_Delvo","Gasser_Cantait_Sasco",381,0,0,0,0,0,0,40,25,NA,35,8,5,NA
"FE26","French-English","Male",4.83230663928816,57.9876796714579,"Bachelor’s Degree","en_it","block1","nov_test","english","immediate_translation",5,"sound/test_waydle_5s.mp3","Waydle_Sidon_Delvo","Gasser_Cantait_Sasco",469,0,0,0,0,0,0,40,25,NA,35,8,5,NA
"FE26","French-English","Male",4.83230663928816,57.9876796714579,"Bachelor’s Degree","en_it","block1","nov_test","english","immediate_translation",6,"sound/test_gasser_5s.mp3","Gasser_Cantait_Sasco","Waydle_Sidon_Delvo",29,0,0,0,0,0,0,40,25,NA,35,8,5,NA
"FE26","French-English","Male",4.83230663928816,57.9876796714579,"Bachelor’s Degree","en_it","block1","nov_test","french","immediate_translation",7,"sound/test_cantait_5s.mp3","Gasser_Cantait_Sasco","Waydle_Sidon_Delvo",7131,0,0,0,0,0,0,40,25,NA,35,8,5,NA
"FE26","French-English","Male",4.83230663928816,57.9876796714579,"Bachelor’s Degree","en_it","block1","nov_test","french","immediate_translation",8,"sound/test_sidon_5s.mp3","Waydle_Sidon_Delvo","Gasser_Cantait_Sasco",2749,0,0,0,0,0,0,40,25,NA,35,8,5,NA
"FE26","French-English","Male",4.83230663928816,57.9876796714579,"Bachelor’s Degree","en_it","block1","nov_test","french","immediate_translation",9,"sound/test_sidon_5s.mp3","Waydle_Sidon_Delvo","Gasser_Cantait_Sasco",1531,0,0,0,0,0,0,40,25,NA,35,8,5,NA
"FE26","French-English","Male",4.83230663928816,57.9876796714579,"Bachelor’s Degree","en_it","block1","nov_test","french","immediate_translation",10,"sound/test_cantait_5s.mp3","Gasser_Cantait_Sasco","Waydle_Sidon_Delvo",859,0,0,0,0,0,0,40,25,NA,35,8,5,NA
"FE26","French-English","Male",4.83230663928816,57.9876796714579,"Bachelor’s Degree","en_it","block1","nov_test","french","immediate_translation",11,"sound/test_cantait_5s.mp3","Gasser_Cantait_Sasco","Waydle_Sidon_Delvo",1320,0,0,0,0,0,0,40,25,NA,35,8,5,NA
"FE26","French-English","Male",4.83230663928816,57.9876796714579,"Bachelor’s Degree","en_it","block1","nov_test","french","immediate_translation",12,"sound/test_sidon_5s.mp3","Waydle_Sidon_Delvo","Gasser_Cantait_Sasco",1160,0,0,0,0,0,0,40,25,NA,35,8,5,NA
"FE26","French-English","Male",4.83230663928816,57.9876796714579,"Bachelor’s Degree","en_it","block2","nov_learn","english","one_language_at_a_time",1,"sound/learning_tulver_look.mp3","Tulver_Donquete_Pifa","",1069,1,0,0,0,0,0,40,25,NA,35,8,5,NA
"FE26","French-English","Male",4.83230663928816,57.9876796714579,"Bachelor’s Degree","en_it","block2","nov_learn","english","one_language_at_a_time",2,"sound/learning_tulver_here.mp3","Tulver_Donquete_Pifa","",309,1,0,0,0,0,0,40,25,NA,35,8,5,NA
"FE26","French-English","Male",4.83230663928816,57.9876796714579,"Bachelor’s Degree","en_it","block2","nov_learn","english","one_language_at_a_time",3,"sound/learning_tulver_here.mp3","Tulver_Donquete_Pifa","",331,1,0,0,0,0,0,40,25,NA,35,8,5,NA
"FE26","French-English","Male",4.83230663928816,57.9876796714579,"Bachelor’s Degree","en_it","block2","nov_learn","french","one_language_at_a_time",4,"sound/learning_donquete_regarde.mp3","Tulver_Donquete_Pifa","",349,1,0,0,0,0,0,40,25,NA,35,8,5,NA
"FE26","French-English","Male",4.83230663928816,57.9876796714579,"Bachelor’s Degree","en_it","block2","nov_learn","french","one_language_at_a_time",5,"sound/learning_donquete_voici.mp3","Tulver_Donquete_Pifa","",480,1,0,0,0,0,0,40,25,NA,35,8,5,NA
"FE26","French-English","Male",4.83230663928816,57.9876796714579,"Bachelor’s Degree","en_it","block2","nov_learn","french","one_language_at_a_time",6,"sound/learning_donquete_regarde.mp3","Tulver_Donquete_Pifa","",240,1,0,0,0,0,0,40,25,NA,35,8,5,NA
"FE26","French-English","Male",4.83230663928816,57.9876796714579,"Bachelor’s Degree","en_it","block2","nov_learn","english","one_language_at_a_time",7,"sound/learning_blicket_look.mp3","Blicket_Puismenne_Kina","",699,1,0,0,0,0,0,40,25,NA,35,8,5,NA
"FE26","French-English","Male",4.83230663928816,57.9876796714579,"Bachelor’s Degree","en_it","block2","nov_learn","english","one_language_at_a_time",8,"sound/learning_blicket_here.mp3","Blicket_Puismenne_Kina","",2531,1,0,0,0,0,0,40,25,NA,35,8,5,NA
"FE26","French-English","Male",4.83230663928816,57.9876796714579,"Bachelor’s Degree","en_it","block2","nov_learn","english","one_language_at_a_time",9,"sound/learning_blicket_look.mp3","Blicket_Puismenne_Kina","",381,1,0,0,0,0,0,40,25,NA,35,8,5,NA
"FE26","French-English","Male",4.83230663928816,57.9876796714579,"Bachelor’s Degree","en_it","block2","nov_learn","french","one_language_at_a_time",10,"sound/learning_puismenne_voici.mp3","Blicket_Puismenne_Kina","",520,1,0,0,0,0,0,40,25,NA,35,8,5,NA
"FE26","French-English","Male",4.83230663928816,57.9876796714579,"Bachelor’s Degree","en_it","block2","nov_learn","french","one_language_at_a_time",11,"sound/learning_puismenne_voici.mp3","Blicket_Puismenne_Kina","",2280,1,0,0,0,0,0,40,25,NA,35,8,5,NA
"FE26","French-English","Male",4.83230663928816,57.9876796714579,"Bachelor’s Degree","en_it","block2","nov_learn","french","one_language_at_a_time",12,"sound/learning_puismenne_regarde.mp3","Blicket_Puismenne_Kina","",269,1,0,0,0,0,0,40,25,NA,35,8,5,NA
"FE26","French-English","Male",4.83230663928816,57.9876796714579,"Bachelor’s Degree","en_it","block2","nov_test","english","one_language_at_a_time",1,"sound/test_blicket_5s.mp3","Blicket_Puismenne_Kina","Blicket_Puismenne_Kina",1080,1,0,0,0,0,0,40,25,NA,35,8,5,NA
"FE26","French-English","Male",4.83230663928816,57.9876796714579,"Bachelor’s Degree","en_it","block2","nov_test","english","one_language_at_a_time",2,"sound/test_tulver_5s.mp3","Tulver_Donquete_Pifa","Tulver_Donquete_Pifa",699,1,0,0,0,0,0,40,25,NA,35,8,5,NA
"FE26","French-English","Male",4.83230663928816,57.9876796714579,"Bachelor’s Degree","en_it","block2","nov_test","english","one_language_at_a_time",3,"sound/test_blicket_5s.mp3","Blicket_Puismenne_Kina","Blicket_Puismenne_Kina",651,1,0,0,0,0,0,40,25,NA,35,8,5,NA
"FE26","French-English","Male",4.83230663928816,57.9876796714579,"Bachelor’s Degree","en_it","block2","nov_test","english","one_language_at_a_time",4,"sound/test_blicket_5s.mp3","Blicket_Puismenne_Kina","Blicket_Puismenne_Kina",1099,1,0,0,0,0,0,40,25,NA,35,8,5,NA
"FE26","French-English","Male",4.83230663928816,57.9876796714579,"Bachelor’s Degree","en_it","block2","nov_test","english","one_language_at_a_time",5,"sound/test_tulver_5s.mp3","Tulver_Donquete_Pifa","Tulver_Donquete_Pifa",581,1,0,0,0,0,0,40,25,NA,35,8,5,NA
"FE26","French-English","Male",4.83230663928816,57.9876796714579,"Bachelor’s Degree","en_it","block2","nov_test","english","one_language_at_a_time",6,"sound/test_tulver_5s.mp3","Tulver_Donquete_Pifa","Tulver_Donquete_Pifa",669,1,0,0,0,0,0,40,25,NA,35,8,5,NA
"FE26","French-English","Male",4.83230663928816,57.9876796714579,"Bachelor’s Degree","en_it","block2","nov_test","french","one_language_at_a_time",7,"sound/test_donquete_5s.mp3","Tulver_Donquete_Pifa","Blicket_Puismenne_Kina",3440,0,0,0,0,0,0,40,25,NA,35,8,5,NA
"FE26","French-English","Male",4.83230663928816,57.9876796714579,"Bachelor’s Degree","en_it","block2","nov_test","french","one_language_at_a_time",8,"sound/test_puismenne_5s.mp3","Blicket_Puismenne_Kina","Tulver_Donquete_Pifa",731,0,0,0,0,0,0,40,25,NA,35,8,5,NA
"FE26","French-English","Male",4.83230663928816,57.9876796714579,"Bachelor’s Degree","en_it","block2","nov_test","french","one_language_at_a_time",9,"sound/test_puismenne_5s.mp3","Blicket_Puismenne_Kina","Tulver_Donquete_Pifa",1069,0,0,0,0,0,0,40,25,NA,35,8,5,NA
"FE26","French-English","Male",4.83230663928816,57.9876796714579,"Bachelor’s Degree","en_it","block2","nov_test","french","one_language_at_a_time",10,"sound/test_donquete_5s.mp3","Tulver_Donquete_Pifa","Blicket_Puismenne_Kina",939,0,0,0,0,0,0,40,25,NA,35,8,5,NA
"FE26","French-English","Male",4.83230663928816,57.9876796714579,"Bachelor’s Degree","en_it","block2","nov_test","french","one_language_at_a_time",11,"sound/test_donquete_5s.mp3","Tulver_Donquete_Pifa","Blicket_Puismenne_Kina",1179,0,0,0,0,0,0,40,25,NA,35,8,5,NA
"FE26","French-English","Male",4.83230663928816,57.9876796714579,"Bachelor’s Degree","en_it","block2","nov_test","french","one_language_at_a_time",12,"sound/test_puismenne_5s.mp3","Blicket_Puismenne_Kina","Tulver_Donquete_Pifa",651,0,0,0,0,0,0,40,25,NA,35,8,5,NA
"FE29","French-English","Male",3.27994524298426,39.3593429158111,"College Certificate/Diploma","en_it","familiar","fam_test","english","familiar",1,"sound/familiar_spoon_5s.mp3","spoon","spoon",3123,1,0,0,0,0,0,80,20,NA,0,9,3,NA
"FE29","French-English","Male",3.27994524298426,39.3593429158111,"College Certificate/Diploma","en_it","familiar","fam_test","english","familiar",2,"sound/familiar_cookie_5s.mp3","cookie","cookie",741,1,0,0,0,0,0,80,20,NA,0,9,3,NA
"FE29","French-English","Male",3.27994524298426,39.3593429158111,"College Certificate/Diploma","en_it","familiar","fam_test","english","familiar",3,"sound/familiar_nose_5s.mp3","nose","doggy",741,0,0,0,0,0,0,80,20,NA,0,9,3,NA
"FE29","French-English","Male",3.27994524298426,39.3593429158111,"College Certificate/Diploma","en_it","familiar","fam_test","english","familiar",4,"sound/familiar_key_5s.mp3","key","key",957,1,0,0,0,0,0,80,20,NA,0,9,3,NA
"FE29","French-English","Male",3.27994524298426,39.3593429158111,"College Certificate/Diploma","en_it","familiar","fam_test","english","familiar",5,"sound/familiar_doggy_5s.mp3","doggy","doggy",2184,1,0,0,0,0,0,80,20,NA,0,9,3,NA
"FE29","French-English","Male",3.27994524298426,39.3593429158111,"College Certificate/Diploma","en_it","familiar","fam_test","english","familiar",6,"sound/familiar_book_5s.mp3","book","book",720,1,0,0,0,0,0,80,20,NA,0,9,3,NA
"FE29","French-English","Male",3.27994524298426,39.3593429158111,"College Certificate/Diploma","en_it","familiar","fam_test","french","familiar",7,"sound/familiar_poupee_5s.mp3","doll","doll",1731,1,0,0,0,0,0,80,20,NA,0,9,3,NA
"FE29","French-English","Male",3.27994524298426,39.3593429158111,"College Certificate/Diploma","en_it","familiar","fam_test","french","familiar",8,"sound/familiar_chat_5s.mp3","kitty","mouth",2621,0,0,0,0,0,0,80,20,NA,0,9,3,NA
"FE29","French-English","Male",3.27994524298426,39.3593429158111,"College Certificate/Diploma","en_it","familiar","fam_test","french","familiar",9,"sound/familiar_main_5s.mp3","hand","hand",3269,1,0,0,0,0,0,80,20,NA,0,9,3,NA
"FE29","French-English","Male",3.27994524298426,39.3593429158111,"College Certificate/Diploma","en_it","familiar","fam_test","french","familiar",10,"sound/familiar_pied_5s.mp3","foot","foot",4120,1,0,0,0,0,0,80,20,NA,0,9,3,NA
"FE29","French-English","Male",3.27994524298426,39.3593429158111,"College Certificate/Diploma","en_it","familiar","fam_test","french","familiar",11,"sound/familiar_chaise_5s.mp3","chair","chair",1448,1,0,0,0,0,0,80,20,NA,0,9,3,NA
"FE29","French-English","Male",3.27994524298426,39.3593429158111,"College Certificate/Diploma","en_it","familiar","fam_test","french","familiar",12,"sound/familiar_bouche_5s.mp3","mouth","mouth",1843,1,0,0,0,0,0,80,20,NA,0,9,3,NA
"FE29","French-English","Male",3.27994524298426,39.3593429158111,"College Certificate/Diploma","en_it","block1","nov_learn","english-french","immediate_translation",1,"sound/learning_gasser_here.mp3","Gasser_Cantait_Sasco","",1464,1,0,0,0,0,0,80,20,NA,0,9,3,NA
"FE29","French-English","Male",3.27994524298426,39.3593429158111,"College Certificate/Diploma","en_it","block1","nov_learn","english-french","immediate_translation",2,"sound/learning_cantait_voici.mp3","Gasser_Cantait_Sasco","",2200,1,0,0,0,0,0,80,20,NA,0,9,3,NA
"FE29","French-English","Male",3.27994524298426,39.3593429158111,"College Certificate/Diploma","en_it","block1","nov_learn","english-french","immediate_translation",3,"sound/learning_gasser_look.mp3","Gasser_Cantait_Sasco","",1443,1,0,0,0,0,0,80,20,NA,0,9,3,NA
"FE29","French-English","Male",3.27994524298426,39.3593429158111,"College Certificate/Diploma","en_it","block1","nov_learn","english-french","immediate_translation",4,"sound/learning_cantait_regarde.mp3","Gasser_Cantait_Sasco","",136,1,0,0,0,0,0,80,20,NA,0,9,3,NA
"FE29","French-English","Male",3.27994524298426,39.3593429158111,"College Certificate/Diploma","en_it","block1","nov_learn","english-french","immediate_translation",5,"sound/learning_gasser_look.mp3","Gasser_Cantait_Sasco","",1979,1,0,0,0,0,0,80,20,NA,0,9,3,NA
"FE29","French-English","Male",3.27994524298426,39.3593429158111,"College Certificate/Diploma","en_it","block1","nov_learn","english-french","immediate_translation",6,"sound/learning_cantait_regarde.mp3","Gasser_Cantait_Sasco","",1816,1,0,0,0,0,0,80,20,NA,0,9,3,NA
"FE29","French-English","Male",3.27994524298426,39.3593429158111,"College Certificate/Diploma","en_it","block1","nov_learn","english-french","immediate_translation",7,"sound/learning_waydle_here.mp3","Waydle_Sidon_Delvo","",2704,1,0,0,0,0,0,80,20,NA,0,9,3,NA
"FE29","French-English","Male",3.27994524298426,39.3593429158111,"College Certificate/Diploma","en_it","block1","nov_learn","english-french","immediate_translation",8,"sound/learning_sidon_voici.mp3","Waydle_Sidon_Delvo","",2736,1,0,0,0,0,0,80,20,NA,0,9,3,NA
"FE29","French-English","Male",3.27994524298426,39.3593429158111,"College Certificate/Diploma","en_it","block1","nov_learn","english-french","immediate_translation",9,"sound/learning_waydle_look.mp3","Waydle_Sidon_Delvo","",1429,1,0,0,0,0,0,80,20,NA,0,9,3,NA
"FE29","French-English","Male",3.27994524298426,39.3593429158111,"College Certificate/Diploma","en_it","block1","nov_learn","english-french","immediate_translation",10,"sound/learning_sidon_regarde.mp3","Waydle_Sidon_Delvo","",1416,1,0,0,0,0,0,80,20,NA,0,9,3,NA
"FE29","French-English","Male",3.27994524298426,39.3593429158111,"College Certificate/Diploma","en_it","block1","nov_learn","english-french","immediate_translation",11,"sound/learning_waydle_here.mp3","Waydle_Sidon_Delvo","",2880,1,0,0,0,0,0,80,20,NA,0,9,3,NA
"FE29","French-English","Male",3.27994524298426,39.3593429158111,"College Certificate/Diploma","en_it","block1","nov_learn","english-french","immediate_translation",12,"sound/learning_sidon_voici.mp3","Waydle_Sidon_Delvo","",1016,1,0,0,0,0,0,80,20,NA,0,9,3,NA
"FE29","French-English","Male",3.27994524298426,39.3593429158111,"College Certificate/Diploma","en_it","block1","nov_test","english","immediate_translation",1,"sound/test_waydle_5s.mp3","Waydle_Sidon_Delvo","Gasser_Cantait_Sasco",1221,0,0,0,0,0,0,80,20,NA,0,9,3,NA
"FE29","French-English","Male",3.27994524298426,39.3593429158111,"College Certificate/Diploma","en_it","block1","nov_test","english","immediate_translation",2,"sound/test_gasser_5s.mp3","Gasser_Cantait_Sasco","Gasser_Cantait_Sasco",824,1,0,0,0,0,0,80,20,NA,0,9,3,NA
"FE29","French-English","Male",3.27994524298426,39.3593429158111,"College Certificate/Diploma","en_it","block1","nov_test","english","immediate_translation",3,"sound/test_gasser_5s.mp3","Gasser_Cantait_Sasco","Gasser_Cantait_Sasco",3291,1,0,0,0,0,0,80,20,NA,0,9,3,NA
"FE29","French-English","Male",3.27994524298426,39.3593429158111,"College Certificate/Diploma","en_it","block1","nov_test","english","immediate_translation",4,"sound/test_waydle_5s.mp3","Waydle_Sidon_Delvo","Waydle_Sidon_Delvo",1173,1,0,0,0,0,0,80,20,NA,0,9,3,NA
"FE29","French-English","Male",3.27994524298426,39.3593429158111,"College Certificate/Diploma","en_it","block1","nov_test","english","immediate_translation",5,"sound/test_waydle_5s.mp3","Waydle_Sidon_Delvo","Waydle_Sidon_Delvo",1544,1,0,0,0,0,0,80,20,NA,0,9,3,NA
"FE29","French-English","Male",3.27994524298426,39.3593429158111,"College Certificate/Diploma","en_it","block1","nov_test","english","immediate_translation",6,"sound/test_gasser_5s.mp3","Gasser_Cantait_Sasco","Gasser_Cantait_Sasco",4728,1,0,0,0,0,0,80,20,NA,0,9,3,NA
"FE29","French-English","Male",3.27994524298426,39.3593429158111,"College Certificate/Diploma","en_it","block1","nov_test","french","immediate_translation",7,"sound/test_cantait_5s.mp3","Gasser_Cantait_Sasco",NA,NA,NA,0,0,0,0,0,80,20,NA,0,9,3,NA
"FE29","French-English","Male",3.27994524298426,39.3593429158111,"College Certificate/Diploma","en_it","block1","nov_test","french","immediate_translation",8,"sound/test_sidon_5s.mp3","Waydle_Sidon_Delvo","Gasser_Cantait_Sasco",4731,0,0,0,0,0,0,80,20,NA,0,9,3,NA
"FE29","French-English","Male",3.27994524298426,39.3593429158111,"College Certificate/Diploma","en_it","block1","nov_test","french","immediate_translation",9,"sound/test_sidon_5s.mp3","Waydle_Sidon_Delvo","Waydle_Sidon_Delvo",5771,1,0,0,0,0,0,80,20,NA,0,9,3,NA
"FE29","French-English","Male",3.27994524298426,39.3593429158111,"College Certificate/Diploma","en_it","block1","nov_test","french","immediate_translation",10,"sound/test_cantait_5s.mp3","Gasser_Cantait_Sasco",NA,NA,NA,0,0,0,0,0,80,20,NA,0,9,3,NA
"FE29","French-English","Male",3.27994524298426,39.3593429158111,"College Certificate/Diploma","en_it","block1","nov_test","french","immediate_translation",11,"sound/test_cantait_5s.mp3","Gasser_Cantait_Sasco","Waydle_Sidon_Delvo",4976,0,0,0,0,0,0,80,20,NA,0,9,3,NA
"FE29","French-English","Male",3.27994524298426,39.3593429158111,"College Certificate/Diploma","en_it","block1","nov_test","french","immediate_translation",12,"sound/test_sidon_5s.mp3","Waydle_Sidon_Delvo","Waydle_Sidon_Delvo",9475,1,0,0,0,0,0,80,20,NA,0,9,3,NA
"FE29","French-English","Male",3.27994524298426,39.3593429158111,"College Certificate/Diploma","en_it","block2","nov_learn","english","one_language_at_a_time",1,"sound/learning_tulver_look.mp3","Tulver_Donquete_Pifa","",880,1,0,0,0,0,0,80,20,NA,0,9,3,NA
"FE29","French-English","Male",3.27994524298426,39.3593429158111,"College Certificate/Diploma","en_it","block2","nov_learn","english","one_language_at_a_time",2,"sound/learning_tulver_here.mp3","Tulver_Donquete_Pifa","",1893,1,0,0,0,0,0,80,20,NA,0,9,3,NA
"FE29","French-English","Male",3.27994524298426,39.3593429158111,"College Certificate/Diploma","en_it","block2","nov_learn","english","one_language_at_a_time",3,"sound/learning_tulver_here.mp3","Tulver_Donquete_Pifa","",2795,1,0,0,0,0,0,80,20,NA,0,9,3,NA
"FE29","French-English","Male",3.27994524298426,39.3593429158111,"College Certificate/Diploma","en_it","block2","nov_learn","french","one_language_at_a_time",4,"sound/learning_donquete_regarde.mp3","Tulver_Donquete_Pifa","",1357,1,0,0,0,0,0,80,20,NA,0,9,3,NA
"FE29","French-English","Male",3.27994524298426,39.3593429158111,"College Certificate/Diploma","en_it","block2","nov_learn","french","one_language_at_a_time",5,"sound/learning_donquete_voici.mp3","Tulver_Donquete_Pifa","",1405,1,0,0,0,0,0,80,20,NA,0,9,3,NA
"FE29","French-English","Male",3.27994524298426,39.3593429158111,"College Certificate/Diploma","en_it","block2","nov_learn","french","one_language_at_a_time",6,"sound/learning_donquete_regarde.mp3","Tulver_Donquete_Pifa","",2800,1,0,0,0,0,0,80,20,NA,0,9,3,NA
"FE29","French-English","Male",3.27994524298426,39.3593429158111,"College Certificate/Diploma","en_it","block2","nov_learn","english","one_language_at_a_time",7,"sound/learning_blicket_look.mp3","Blicket_Puismenne_Kina","",3261,1,0,0,0,0,0,80,20,NA,0,9,3,NA
"FE29","French-English","Male",3.27994524298426,39.3593429158111,"College Certificate/Diploma","en_it","block2","nov_learn","english","one_language_at_a_time",8,"sound/learning_blicket_here.mp3","Blicket_Puismenne_Kina","",2419,1,0,0,0,0,0,80,20,NA,0,9,3,NA
"FE29","French-English","Male",3.27994524298426,39.3593429158111,"College Certificate/Diploma","en_it","block2","nov_learn","english","one_language_at_a_time",9,"sound/learning_blicket_look.mp3","Blicket_Puismenne_Kina","",2381,1,0,0,0,0,0,80,20,NA,0,9,3,NA
"FE29","French-English","Male",3.27994524298426,39.3593429158111,"College Certificate/Diploma","en_it","block2","nov_learn","french","one_language_at_a_time",10,"sound/learning_puismenne_voici.mp3","Blicket_Puismenne_Kina","",877,1,0,0,0,0,0,80,20,NA,0,9,3,NA
"FE29","French-English","Male",3.27994524298426,39.3593429158111,"College Certificate/Diploma","en_it","block2","nov_learn","french","one_language_at_a_time",11,"sound/learning_puismenne_voici.mp3","Blicket_Puismenne_Kina","",4989,1,0,0,0,0,0,80,20,NA,0,9,3,NA
"FE29","French-English","Male",3.27994524298426,39.3593429158111,"College Certificate/Diploma","en_it","block2","nov_learn","french","one_language_at_a_time",12,"sound/learning_puismenne_regarde.mp3","Blicket_Puismenne_Kina",NA,NA,NA,0,0,0,0,0,80,20,NA,0,9,3,NA
"FE29","French-English","Male",3.27994524298426,39.3593429158111,"College Certificate/Diploma","en_it","block2","nov_test","english","one_language_at_a_time",1,"sound/test_blicket_5s.mp3","Blicket_Puismenne_Kina","Blicket_Puismenne_Kina",1387,1,0,0,0,0,0,80,20,NA,0,9,3,NA
"FE29","French-English","Male",3.27994524298426,39.3593429158111,"College Certificate/Diploma","en_it","block2","nov_test","english","one_language_at_a_time",2,"sound/test_tulver_5s.mp3","Tulver_Donquete_Pifa","Tulver_Donquete_Pifa",312,1,0,0,0,0,0,80,20,NA,0,9,3,NA
"FE29","French-English","Male",3.27994524298426,39.3593429158111,"College Certificate/Diploma","en_it","block2","nov_test","english","one_language_at_a_time",3,"sound/test_blicket_5s.mp3","Blicket_Puismenne_Kina","Blicket_Puismenne_Kina",739,1,0,0,0,0,0,80,20,NA,0,9,3,NA
"FE29","French-English","Male",3.27994524298426,39.3593429158111,"College Certificate/Diploma","en_it","block2","nov_test","english","one_language_at_a_time",4,"sound/test_blicket_5s.mp3","Blicket_Puismenne_Kina","Blicket_Puismenne_Kina",1613,1,0,0,0,0,0,80,20,NA,0,9,3,NA
"FE29","French-English","Male",3.27994524298426,39.3593429158111,"College Certificate/Diploma","en_it","block2","nov_test","english","one_language_at_a_time",5,"sound/test_tulver_5s.mp3","Tulver_Donquete_Pifa","Tulver_Donquete_Pifa",573,1,0,0,0,0,0,80,20,NA,0,9,3,NA
"FE29","French-English","Male",3.27994524298426,39.3593429158111,"College Certificate/Diploma","en_it","block2","nov_test","english","one_language_at_a_time",6,"sound/test_tulver_5s.mp3","Tulver_Donquete_Pifa",NA,NA,NA,0,0,0,0,0,80,20,NA,0,9,3,NA
"FE29","French-English","Male",3.27994524298426,39.3593429158111,"College Certificate/Diploma","en_it","block2","nov_test","french","one_language_at_a_time",7,"sound/test_donquete_5s.mp3","Tulver_Donquete_Pifa","Tulver_Donquete_Pifa",2573,1,0,0,0,0,0,80,20,NA,0,9,3,NA
"FE29","French-English","Male",3.27994524298426,39.3593429158111,"College Certificate/Diploma","en_it","block2","nov_test","french","one_language_at_a_time",8,"sound/test_puismenne_5s.mp3","Blicket_Puismenne_Kina","Blicket_Puismenne_Kina",3424,1,0,0,0,0,0,80,20,NA,0,9,3,NA
"FE29","French-English","Male",3.27994524298426,39.3593429158111,"College Certificate/Diploma","en_it","block2","nov_test","french","one_language_at_a_time",9,"sound/test_puismenne_5s.mp3","Blicket_Puismenne_Kina","Tulver_Donquete_Pifa",2360,0,0,0,0,0,0,80,20,NA,0,9,3,NA
"FE29","French-English","Male",3.27994524298426,39.3593429158111,"College Certificate/Diploma","en_it","block2","nov_test","french","one_language_at_a_time",10,"sound/test_donquete_5s.mp3","Tulver_Donquete_Pifa","Blicket_Puismenne_Kina",416,0,0,0,0,0,0,80,20,NA,0,9,3,NA
"FE29","French-English","Male",3.27994524298426,39.3593429158111,"College Certificate/Diploma","en_it","block2","nov_test","french","one_language_at_a_time",11,"sound/test_donquete_5s.mp3","Tulver_Donquete_Pifa","Tulver_Donquete_Pifa",333,1,0,0,0,0,0,80,20,NA,0,9,3,NA
"FE29","French-English","Male",3.27994524298426,39.3593429158111,"College Certificate/Diploma","en_it","block2","nov_test","french","one_language_at_a_time",12,"sound/test_puismenne_5s.mp3","Blicket_Puismenne_Kina","Tulver_Donquete_Pifa",3045,0,0,0,0,0,0,80,20,NA,0,9,3,NA
"FE32","French-English","Male",4.18343600273785,50.2012320328542,"Doctoral Degree","en_it","familiar","fam_test","english","familiar",1,"sound/familiar_spoon_5s.mp3","spoon","book",437,0,0,0,0,0,0,30,70,NA,0,4,9,NA
"FE32","French-English","Male",4.18343600273785,50.2012320328542,"Doctoral Degree","en_it","familiar","fam_test","english","familiar",2,"sound/familiar_cookie_5s.mp3","cookie","cookie",3024,1,0,0,0,0,0,30,70,NA,0,4,9,NA
"FE32","French-English","Male",4.18343600273785,50.2012320328542,"Doctoral Degree","en_it","familiar","fam_test","english","familiar",3,"sound/familiar_nose_5s.mp3","nose","nose",1120,1,0,0,0,0,0,30,70,NA,0,4,9,NA
"FE32","French-English","Male",4.18343600273785,50.2012320328542,"Doctoral Degree","en_it","familiar","fam_test","english","familiar",4,"sound/familiar_key_5s.mp3","key","key",1053,1,0,0,0,0,0,30,70,NA,0,4,9,NA
"FE32","French-English","Male",4.18343600273785,50.2012320328542,"Doctoral Degree","en_it","familiar","fam_test","english","familiar",5,"sound/familiar_doggy_5s.mp3","doggy","doggy",565,1,0,0,0,0,0,30,70,NA,0,4,9,NA
"FE32","French-English","Male",4.18343600273785,50.2012320328542,"Doctoral Degree","en_it","familiar","fam_test","english","familiar",6,"sound/familiar_book_5s.mp3","book","book",781,1,0,0,0,0,0,30,70,NA,0,4,9,NA
"FE32","French-English","Male",4.18343600273785,50.2012320328542,"Doctoral Degree","en_it","familiar","fam_test","french","familiar",7,"sound/familiar_poupee_5s.mp3","doll","doll",1123,1,0,0,0,0,0,30,70,NA,0,4,9,NA
"FE32","French-English","Male",4.18343600273785,50.2012320328542,"Doctoral Degree","en_it","familiar","fam_test","french","familiar",8,"sound/familiar_chat_5s.mp3","kitty","kitty",864,1,0,0,0,0,0,30,70,NA,0,4,9,NA
"FE32","French-English","Male",4.18343600273785,50.2012320328542,"Doctoral Degree","en_it","familiar","fam_test","french","familiar",9,"sound/familiar_main_5s.mp3","hand","hand",797,1,0,0,0,0,0,30,70,NA,0,4,9,NA
"FE32","French-English","Male",4.18343600273785,50.2012320328542,"Doctoral Degree","en_it","familiar","fam_test","french","familiar",10,"sound/familiar_pied_5s.mp3","foot","foot",523,1,0,0,0,0,0,30,70,NA,0,4,9,NA
"FE32","French-English","Male",4.18343600273785,50.2012320328542,"Doctoral Degree","en_it","familiar","fam_test","french","familiar",11,"sound/familiar_chaise_5s.mp3","chair","chair",592,1,0,0,0,0,0,30,70,NA,0,4,9,NA
"FE32","French-English","Male",4.18343600273785,50.2012320328542,"Doctoral Degree","en_it","familiar","fam_test","french","familiar",12,"sound/familiar_bouche_5s.mp3","mouth","mouth",613,1,0,0,0,0,0,30,70,NA,0,4,9,NA
"FE32","French-English","Male",4.18343600273785,50.2012320328542,"Doctoral Degree","en_it","block1","nov_learn","english-french","immediate_translation",1,"sound/learning_waydle_here.mp3","Waydle_Sidon_Delvo","",3877,1,0,0,0,0,0,30,70,NA,0,4,9,NA
"FE32","French-English","Male",4.18343600273785,50.2012320328542,"Doctoral Degree","en_it","block1","nov_learn","english-french","immediate_translation",2,"sound/learning_sidon_voici.mp3","Waydle_Sidon_Delvo","",1355,1,0,0,0,0,0,30,70,NA,0,4,9,NA
"FE32","French-English","Male",4.18343600273785,50.2012320328542,"Doctoral Degree","en_it","block1","nov_learn","english-french","immediate_translation",3,"sound/learning_waydle_look.mp3","Waydle_Sidon_Delvo","",552,1,0,0,0,0,0,30,70,NA,0,4,9,NA
"FE32","French-English","Male",4.18343600273785,50.2012320328542,"Doctoral Degree","en_it","block1","nov_learn","english-french","immediate_translation",4,"sound/learning_sidon_regarde.mp3","Waydle_Sidon_Delvo","",299,1,0,0,0,0,0,30,70,NA,0,4,9,NA
"FE32","French-English","Male",4.18343600273785,50.2012320328542,"Doctoral Degree","en_it","block1","nov_learn","english-french","immediate_translation",5,"sound/learning_waydle_here.mp3","Waydle_Sidon_Delvo","",477,1,0,0,0,0,0,30,70,NA,0,4,9,NA
"FE32","French-English","Male",4.18343600273785,50.2012320328542,"Doctoral Degree","en_it","block1","nov_learn","english-french","immediate_translation",6,"sound/learning_sidon_voici.mp3","Waydle_Sidon_Delvo","",704,1,0,0,0,0,0,30,70,NA,0,4,9,NA
"FE32","French-English","Male",4.18343600273785,50.2012320328542,"Doctoral Degree","en_it","block1","nov_learn","english-french","immediate_translation",7,"sound/learning_gasser_here.mp3","Gasser_Cantait_Sasco","",688,1,0,0,0,0,0,30,70,NA,0,4,9,NA
"FE32","French-English","Male",4.18343600273785,50.2012320328542,"Doctoral Degree","en_it","block1","nov_learn","english-french","immediate_translation",8,"sound/learning_cantait_voici.mp3","Gasser_Cantait_Sasco","",469,1,0,0,0,0,0,30,70,NA,0,4,9,NA
"FE32","French-English","Male",4.18343600273785,50.2012320328542,"Doctoral Degree","en_it","block1","nov_learn","english-french","immediate_translation",9,"sound/learning_gasser_look.mp3","Gasser_Cantait_Sasco","",2779,1,0,0,0,0,0,30,70,NA,0,4,9,NA
"FE32","French-English","Male",4.18343600273785,50.2012320328542,"Doctoral Degree","en_it","block1","nov_learn","english-french","immediate_translation",10,"sound/learning_cantait_regarde.mp3","Gasser_Cantait_Sasco","",371,1,0,0,0,0,0,30,70,NA,0,4,9,NA
"FE32","French-English","Male",4.18343600273785,50.2012320328542,"Doctoral Degree","en_it","block1","nov_learn","english-french","immediate_translation",11,"sound/learning_gasser_look.mp3","Gasser_Cantait_Sasco","",2845,1,0,0,0,0,0,30,70,NA,0,4,9,NA
"FE32","French-English","Male",4.18343600273785,50.2012320328542,"Doctoral Degree","en_it","block1","nov_learn","english-french","immediate_translation",12,"sound/learning_cantait_regarde.mp3","Gasser_Cantait_Sasco","",2539,1,0,0,0,0,0,30,70,NA,0,4,9,NA
"FE32","French-English","Male",4.18343600273785,50.2012320328542,"Doctoral Degree","en_it","block1","nov_test","english","immediate_translation",1,"sound/test_waydle_5s.mp3","Waydle_Sidon_Delvo","Waydle_Sidon_Delvo",1227,1,0,0,0,0,0,30,70,NA,0,4,9,NA
"FE32","French-English","Male",4.18343600273785,50.2012320328542,"Doctoral Degree","en_it","block1","nov_test","english","immediate_translation",2,"sound/test_gasser_5s.mp3","Gasser_Cantait_Sasco","Gasser_Cantait_Sasco",731,1,0,0,0,0,0,30,70,NA,0,4,9,NA
"FE32","French-English","Male",4.18343600273785,50.2012320328542,"Doctoral Degree","en_it","block1","nov_test","english","immediate_translation",3,"sound/test_gasser_5s.mp3","Gasser_Cantait_Sasco","Gasser_Cantait_Sasco",584,1,0,0,0,0,0,30,70,NA,0,4,9,NA
"FE32","French-English","Male",4.18343600273785,50.2012320328542,"Doctoral Degree","en_it","block1","nov_test","english","immediate_translation",4,"sound/test_waydle_5s.mp3","Waydle_Sidon_Delvo","Waydle_Sidon_Delvo",653,1,0,0,0,0,0,30,70,NA,0,4,9,NA
"FE32","French-English","Male",4.18343600273785,50.2012320328542,"Doctoral Degree","en_it","block1","nov_test","english","immediate_translation",5,"sound/test_waydle_5s.mp3","Waydle_Sidon_Delvo","Waydle_Sidon_Delvo",653,1,0,0,0,0,0,30,70,NA,0,4,9,NA
"FE32","French-English","Male",4.18343600273785,50.2012320328542,"Doctoral Degree","en_it","block1","nov_test","english","immediate_translation",6,"sound/test_gasser_5s.mp3","Gasser_Cantait_Sasco","Gasser_Cantait_Sasco",1165,1,0,0,0,0,0,30,70,NA,0,4,9,NA
"FE32","French-English","Male",4.18343600273785,50.2012320328542,"Doctoral Degree","en_it","block1","nov_test","french","immediate_translation",7,"sound/test_cantait_5s.mp3","Gasser_Cantait_Sasco","Gasser_Cantait_Sasco",4944,1,0,0,0,0,0,30,70,NA,0,4,9,NA
"FE32","French-English","Male",4.18343600273785,50.2012320328542,"Doctoral Degree","en_it","block1","nov_test","french","immediate_translation",8,"sound/test_sidon_5s.mp3","Waydle_Sidon_Delvo","Waydle_Sidon_Delvo",1000,1,0,0,0,0,0,30,70,NA,0,4,9,NA
"FE32","French-English","Male",4.18343600273785,50.2012320328542,"Doctoral Degree","en_it","block1","nov_test","french","immediate_translation",9,"sound/test_sidon_5s.mp3","Waydle_Sidon_Delvo","Waydle_Sidon_Delvo",515,1,0,0,0,0,0,30,70,NA,0,4,9,NA
"FE32","French-English","Male",4.18343600273785,50.2012320328542,"Doctoral Degree","en_it","block1","nov_test","french","immediate_translation",10,"sound/test_cantait_5s.mp3","Gasser_Cantait_Sasco","Gasser_Cantait_Sasco",768,1,0,0,0,0,0,30,70,NA,0,4,9,NA
"FE32","French-English","Male",4.18343600273785,50.2012320328542,"Doctoral Degree","en_it","block1","nov_test","french","immediate_translation",11,"sound/test_cantait_5s.mp3","Gasser_Cantait_Sasco","Gasser_Cantait_Sasco",704,1,0,0,0,0,0,30,70,NA,0,4,9,NA
"FE32","French-English","Male",4.18343600273785,50.2012320328542,"Doctoral Degree","en_it","block1","nov_test","french","immediate_translation",12,"sound/test_sidon_5s.mp3","Waydle_Sidon_Delvo","Waydle_Sidon_Delvo",3435,1,0,0,0,0,0,30,70,NA,0,4,9,NA
"FE32","French-English","Male",4.18343600273785,50.2012320328542,"Doctoral Degree","en_it","block2","nov_learn","english","one_language_at_a_time",1,"sound/learning_tulver_look.mp3","Tulver_Donquete_Pifa","",2779,1,0,0,0,0,0,30,70,NA,0,4,9,NA
"FE32","French-English","Male",4.18343600273785,50.2012320328542,"Doctoral Degree","en_it","block2","nov_learn","english","one_language_at_a_time",2,"sound/learning_tulver_here.mp3","Tulver_Donquete_Pifa","",584,1,0,0,0,0,0,30,70,NA,0,4,9,NA
"FE32","French-English","Male",4.18343600273785,50.2012320328542,"Doctoral Degree","en_it","block2","nov_learn","english","one_language_at_a_time",3,"sound/learning_tulver_here.mp3","Tulver_Donquete_Pifa","",723,1,0,0,0,0,0,30,70,NA,0,4,9,NA
"FE32","French-English","Male",4.18343600273785,50.2012320328542,"Doctoral Degree","en_it","block2","nov_learn","french","one_language_at_a_time",4,"sound/learning_donquete_regarde.mp3","Tulver_Donquete_Pifa","",1733,1,0,0,0,0,0,30,70,NA,0,4,9,NA
"FE32","French-English","Male",4.18343600273785,50.2012320328542,"Doctoral Degree","en_it","block2","nov_learn","french","one_language_at_a_time",5,"sound/learning_donquete_voici.mp3","Tulver_Donquete_Pifa","",355,1,0,0,0,0,0,30,70,NA,0,4,9,NA
"FE32","French-English","Male",4.18343600273785,50.2012320328542,"Doctoral Degree","en_it","block2","nov_learn","french","one_language_at_a_time",6,"sound/learning_donquete_regarde.mp3","Tulver_Donquete_Pifa","",480,1,0,0,0,0,0,30,70,NA,0,4,9,NA
